timestamp_ms,accel_x,accel_y,accel_z,gyro_x,gyro_y,gyro_z,mag_x,mag_y,mag_z,temperature_c,flex_raw,flex_voltage,glitch_flag
493124,0.907,-2.737,-9.318,0.002,-0.005,0.018,-170.4,71.7,-79.8,27.5,1429,1.152,0
493178,0.991,-2.701,-9.263,0.009,-0.018,0.034,-171.75,71.1,-82.2,27.6,1461,1.177,0
493232,0.912,-2.756,-9.345,-0.001,-0.007,-0.003,-171.75,71.1,-82.2,27.7,1559,1.256,0
493286,0.929,-2.777,-9.328,0.032,-0.036,0.103,-170.1,69.3,-81.6,27.8,1723,1.388,0
493340,0.905,-2.804,-9.345,-0.014,0.027,-0.106,-172.35,71.7,-81.6,27.3,1792,1.444,0
493394,0.895,-2.768,-9.301,0.008,-0.002,0.029,-172.35,71.7,-81.6,27.5,1512,1.218,0
493448,0.912,-2.71,-9.299,-0.015,0.022,-0.061,-170.85,71.25,-80.25,27.6,1568,1.264,0
493502,0.831,-2.792,-9.301,-0.006,0.014,-0.01,-170.85,71.25,-80.25,27.6,1486,1.198,0
493556,0.936,-2.713,-9.328,-0.011,0.015,-0.026,-170.85,71.25,-80.25,27.6,1432,1.154,0
493610,1.01,-2.722,-9.337,-0.028,0.044,-0.151,-170.85,71.25,-80.25,27.6,1180,0.951,0
493664,0.479,-2.602,-9.258,0.014,0.007,-0.039,-170.85,70.5,-80.55,27.7,757,0.61,0
493718,1.927,-2.746,-10.096,0.293,0.07,-0.121,-170.85,70.5,-80.55,27.7,571,0.46,0
493772,0.749,-2.801,-9.273,-0.004,0.033,-0.074,-170.85,70.5,-80.55,27.4,224,0.181,0
493826,1.159,-3.306,-9.258,-0.002,0.102,-0.16,-170.85,70.5,-80.55,27.6,311,0.251,0
493880,0.79,-2.935,-9.562,-0.081,-0.111,-0.122,-170.55,71.1,-81.15,27.6,272,0.219,0
493934,1.336,-2.32,-8.868,-0.164,-0.179,-0.013,-170.55,71.1,-81.15,27.6,267,0.215,0
493988,1.118,-2.33,-9.196,0.024,-0.055,-0.117,-170.55,71.1,-81.15,27.7,467,0.376,0
494042,0.761,-2.708,-9.457,-0.074,-0.102,-0.077,-169.8,76.95,-86.55,27.5,605,0.488,0
494096,0.828,-3.627,-9.493,0.008,-0.034,0.106,-169.8,76.95,-86.55,27.8,583,0.47,0
494150,0.749,-2.591,-9.282,0.004,-0.02,0.004,-170.4,77.4,-88.95,27.7,528,0.425,0
494204,0.534,-3.093,-9.007,0.142,-0.221,0.107,-170.4,77.4,-88.95,27.9,684,0.551,0
494258,0.469,-2.715,-9.335,-0.066,-0.133,0.134,-169.5,75.0,-91.35,27.4,710,0.572,0
494312,0.678,-2.662,-9.474,0.15,-0.042,0.131,-169.5,75.0,-91.35,27.6,88,0.071,0
494366,0.464,-2.792,-9.359,0.046,0.066,0.041,-170.1,75.6,-95.55,27.6,58,0.047,0
494420,0.543,-2.763,-9.524,0.186,0.105,0.05,-170.1,75.6,-95.55,27.5,25,0.02,0
494474,1.104,-2.722,-9.464,-0.11,0.165,0.011,-171.6,70.95,-94.8,27.7,5,0.004,0
494528,0.769,-2.88,-10.218,-0.382,0.103,0.291,-169.65,70.05,-93.3,27.8,0,0.0,0
494582,1.815,-2.859,-7.393,-0.288,0.117,0.078,-169.65,70.05,-93.3,27.6,0,0.0,0
494636,0.563,-3.44,-9.905,-0.329,-0.216,0.11,-163.65,74.7,-94.05,27.6,0,0.0,0
494690,1.027,-2.444,-9.941,0.013,-0.043,0.307,-163.65,74.7,-94.05,27.8,5,0.004,0
494744,0.565,-2.054,-9.519,-0.499,0.094,0.083,-161.25,70.65,-97.5,27.5,47,0.038,0
494798,0.275,-2.729,-10.29,-0.04,0.152,0.215,-161.25,70.65,-97.5,27.4,55,0.044,0
494852,0.151,-1.171,-10.4,-0.205,-0.056,0.325,-161.25,70.65,-97.5,27.6,86,0.069,0
494906,0.474,-0.35,-10.063,-0.599,-0.14,0.229,-161.25,70.65,-97.5,27.5,87,0.07,0
494960,-2.289,1.487,-10.659,-1.096,0.669,0.817,-152.55,58.5,-102.9,27.9,61,0.049,0
495014,5.94,-5.389,-7.369,-0.382,0.52,1.078,-152.55,58.5,-102.9,27.6,79,0.064,0
495068,-3.385,2.368,-11.059,-0.22,-0.032,-0.619,-152.55,58.5,-102.9,27.4,115,0.093,0
495122,0.29,0.278,-9.234,-0.896,-0.334,-0.143,-152.55,58.5,-102.9,27.6,153,0.123,0
495176,1.882,-1.252,-9.57,-0.886,-0.044,0.151,-138.6,51.0,-96.45,27.6,136,0.11,0
495230,1.065,0.16,-8.947,-0.102,0.365,0.369,-138.6,51.0,-96.45,27.5,168,0.135,0
495284,0.45,0.359,-9.649,-0.476,0.126,0.282,-138.6,51.0,-96.45,27.4,328,0.264,0
495338,1.25,0.412,-9.385,-0.026,-0.176,0.159,-126.0,40.65,-91.5,27.8,567,0.457,0
495392,1.381,0.23,-10.094,-0.138,0.244,0.288,-126.0,40.65,-91.5,27.5,819,0.66,0
495446,0.752,1.166,-9.787,-0.092,-0.121,0.117,-121.65,35.25,-88.2,27.6,875,0.705,0
495500,1.623,0.594,-10.326,-0.09,-0.164,0.042,-121.65,35.25,-88.2,27.4,901,0.726,0
495554,1.19,1.168,-8.777,-0.193,-0.123,-0.083,-115.2,30.6,-91.95,27.6,1091,0.879,0
495608,1.034,0.225,-9.905,0.128,-0.149,-0.064,-115.2,30.6,-91.95,27.9,1274,1.027,0
495662,1.3,0.879,-9.342,-0.038,-0.285,-0.129,-106.5,28.2,-88.8,27.6,1303,1.05,0
495716,1.508,0.529,-8.665,-0.407,0.048,-0.164,-106.5,28.2,-88.8,27.5,1320,1.064,0
495770,0.601,0.175,-8.504,-0.072,0.232,-0.141,-98.55,28.35,-90.0,27.5,1517,1.222,0
495824,0.852,0.946,-9.388,0.266,0.113,0.124,-94.95,28.5,-83.7,27.9,1487,1.198,0
495878,1.231,1.626,-8.612,-0.563,0.343,0.016,-94.95,28.5,-83.7,27.6,1052,0.848,0
495932,1.592,0.828,-10.233,-0.266,0.833,0.063,-93.15,27.75,-78.15,27.6,1224,0.986,0
495986,0.91,1.628,-8.844,-0.933,0.72,-0.004,-93.15,27.75,-78.15,27.6,1215,0.979,0
496040,1.458,1.805,-8.698,-0.362,1.009,0.172,-91.2,33.15,-68.7,27.6,1000,0.806,0
496094,1.839,1.417,-12.388,-0.312,0.964,0.572,-91.2,33.15,-68.7,27.7,765,0.616,0
496148,1.389,4.336,-7.987,-1.151,0.488,0.408,-93.6,29.85,-56.1,27.8,531,0.428,0
496202,2.588,0.567,-7.695,-1.085,0.171,0.339,-93.6,29.85,-56.1,27.6,309,0.249,0
496256,3.079,1.626,-8.995,1.4,0.671,0.727,-92.55,29.1,-50.55,27.7,428,0.345,0
496310,2.217,4.252,-8.626,0.269,0.666,0.647,-92.55,29.1,-50.55,27.7,503,0.405,0
496364,3.297,2.339,-8.49,-1.303,0.652,0.5,-92.55,29.1,-50.55,27.7,147,0.118,0
496418,3.603,1.326,-4.99,-0.981,0.455,0.639,-96.6,17.85,-36.0,27.5,110,0.089,0
496472,5.76,-0.227,-7.915,0.377,0.222,0.912,-96.6,17.85,-36.0,27.9,125,0.101,0
496526,6.292,2.504,-9.263,1.896,1.188,1.091,-96.6,17.85,-36.0,27.6,131,0.106,0
496580,5.253,4.757,-5.844,-1.576,0.735,0.522,-96.6,17.85,-36.0,27.7,85,0.068,0
496634,7.439,-0.922,-8.452,-0.226,1.352,0.901,-96.3,-2.85,-16.95,27.8,104,0.084,0
496688,5.547,-1.923,-9.373,2.143,-0.562,-1.054,-96.3,-2.85,-16.95,27.5,113,0.091,0
496742,10.056,0.376,-11.164,2.24,-0.117,0.785,-91.35,-13.65,-8.1,27.4,91,0.073,0
496796,8.875,4.487,-8.236,0.329,1.118,0.334,-91.35,-13.65,-8.1,27.6,111,0.089,0
496850,7.104,1.214,-8.322,-1.801,1.018,-0.253,-86.7,-18.45,-1.35,27.9,0,0.0,0
496904,8.195,0.792,-7.769,-0.082,0.296,0.216,-86.7,-18.45,-1.35,27.4,28,0.023,0
496958,7.776,0.496,-7.029,0.17,-0.06,0.148,-83.1,-19.65,2.55,27.7,2645,2.132,0
497012,7.223,1.757,-6.455,-0.482,-0.583,-0.314,-85.2,-16.95,1.35,27.6,3115,2.51,0
497066,8.013,1.343,-7.803,0.19,-0.365,-0.151,-85.2,-16.95,1.35,27.5,1014,0.817,0
497120,7.422,1.858,-6.258,-0.831,-0.203,-0.182,-87.9,-15.75,-1.35,27.4,63,0.051,0
497174,7.228,0.682,-6.218,-0.935,-0.162,-0.178,-87.9,-15.75,-1.35,27.4,37,0.03,0
497228,6.412,0.227,-4.204,-0.273,-0.438,-0.141,-88.8,-14.1,-5.25,27.8,67,0.054,0
497282,7.688,0.084,-6.582,0.801,-0.085,-0.019,-88.8,-14.1,-5.25,27.6,88,0.071,0
497336,6.812,2.284,-5.681,0.372,0.046,0.164,-90.15,-15.0,-6.9,27.5,128,0.103,0
497390,7.034,1.044,-7.468,-0.065,0.197,-0.007,-90.15,-15.0,-6.9,27.6,128,0.103,0
497444,5.61,-0.098,-7.582,0.01,-0.088,-0.11,-90.15,-15.0,-6.9,27.4,99,0.08,0
497498,6.359,1.077,-6.491,0.628,-0.667,-0.058,-90.15,-15.0,-6.9,27.6,115,0.093,0
497552,8.198,-0.019,-7.839,0.453,-0.596,-0.009,-88.8,-14.4,-8.85,27.6,119,0.096,0
497606,6.857,1.595,-6.512,0.538,0.589,0.097,-88.8,-14.4,-8.85,27.2,367,0.296,0
497660,5.186,0.733,-7.202,0.45,0.123,-0.184,-88.8,-14.4,-8.85,27.6,1653,1.332,0
497711,0.0,0.0,0.0,0.0,0.0,0.0,-2536.8,2450.1,-3073.2,21.0,2165,1.745,1
497765,7.283,1.188,-7.496,0.203,-0.046,-0.047,-89.25,-11.4,-8.55,27.4,2534,2.042,0
497819,6.416,0.857,-7.221,-0.508,0.232,-0.028,-89.25,-11.4,-8.55,27.6,318,0.256,0
497870,0.0,0.0,0.0,0.0,0.0,0.0,-2536.8,2450.1,-3073.2,21.0,2379,1.917,1
497921,0.0,0.0,0.0,0.0,0.0,0.0,-2536.8,2450.1,-3073.2,21.0,296,0.239,1
497975,5.993,-0.342,-6.886,-0.008,0.112,0.28,-88.05,-9.45,-9.3,27.6,133,0.107,0
498026,0.0,0.0,0.0,0.0,0.0,0.0,-2536.8,2450.1,-3073.2,21.0,2051,1.653,1
498077,0.0,0.0,0.0,0.0,0.0,0.0,-2536.8,2450.1,-3073.2,21.0,2901,2.338,1
498128,0.0,0.0,0.0,0.0,0.0,0.0,-2536.8,2450.1,-3073.2,21.0,1223,0.986,1
498182,6.574,-0.414,-7.338,-0.183,0.143,0.103,-87.75,-12.9,-8.1,27.7,1350,1.088,0
498236,6.141,0.4,-7.228,0.101,0.064,0.051,-89.25,-12.9,-10.35,27.4,1351,1.089,0
498290,6.941,0.601,-7.685,-0.157,-0.008,0.131,-89.25,-12.9,-10.35,27.4,1406,1.133,0
498344,6.469,0.366,-6.337,-0.377,-0.051,-0.087,-88.05,-13.2,-7.05,27.5,1381,1.113,0
498398,6.46,-0.06,-7.137,0.126,0.122,0.043,-87.75,-15.15,-6.75,27.7,1533,1.235,0
498452,6.203,0.941,-6.663,0.195,-0.136,0.064,-87.75,-15.15,-6.75,27.6,1592,1.283,0
498506,7.099,0.642,-7.728,-0.049,-0.114,-0.067,-87.3,-14.4,-10.35,27.5,2253,1.816,0
498560,6.448,0.294,-6.675,-0.108,0.188,-0.072,-87.3,-14.4,-10.35,27.6,3313,2.67,0
498614,5.976,0.204,-7.187,0.122,-0.167,-0.064,-86.55,-14.1,-9.3,27.7,3566,2.874,0
498668,6.79,0.462,-6.512,0.347,-0.206,-0.051,-86.55,-14.1,-9.3,27.9,3517,2.834,0
498722,6.792,0.453,-7.702,0.18,0.396,0.201,-86.55,-14.1,-9.3,27.5,3305,2.663,0
498776,6.721,-0.484,-6.986,0.345,-0.107,-0.145,-86.55,-14.1,-9.3,27.6,3620,2.917,0
498830,6.462,0.036,-7.039,0.641,-0.27,-0.213,-88.65,-12.3,-8.4,27.6,3833,3.089,0
498884,6.266,-0.225,-7.436,0.284,-0.174,-0.084,-88.65,-12.3,-8.4,27.7,3925,3.163,0
498938,6.244,0.05,-7.508,-0.06,-0.479,-0.007,-88.65,-12.3,-8.4,27.6,3784,3.049,0
498992,5.911,0.05,-7.618,0.408,-0.518,-0.224,-88.65,-8.4,-13.05,27.5,3872,3.12,0
499046,5.794,0.074,-7.836,0.737,-0.394,-0.112,-88.65,-8.4,-13.05,27.7,3772,3.04,0
499100,5.732,-0.555,-7.628,0.649,-0.26,-0.346,-88.65,-8.4,-13.05,27.6,3719,2.997,0
499154,5.744,-0.52,-7.712,0.837,0.584,-0.19,-88.65,-8.4,-13.05,27.9,3815,3.074,0
499208,5.796,-0.862,-7.815,-0.1,0.161,-0.026,-90.15,-3.45,-13.8,27.4,3771,3.039,0
499262,5.911,-0.833,-8.124,-0.949,-0.493,0.266,-90.15,-3.45,-13.8,27.6,3789,3.053,0
499316,9.28,4.185,-7.525,-1.098,1.371,-1.231,-88.95,-6.45,-15.6,27.6,3688,2.972,0
499370,2.873,-0.955,-6.258,-2.524,1.223,0.058,-88.95,-6.45,-15.6,27.6,3611,2.91,0
499424,5.428,0.232,-8.475,0.997,-1.426,1.007,-88.05,-5.85,-9.6,27.6,3104,2.501,0
499478,9.064,4.58,-9.052,-0.284,-0.579,-0.239,-88.05,-5.85,-9.6,27.5,2689,2.167,0
499532,7.288,3.376,-9.246,-2.336,0.523,-0.971,-88.8,-8.25,-21.0,27.9,2354,1.897,0
499583,0.0,0.0,0.0,0.0,0.0,0.0,-2536.8,2450.1,-3073.2,21.0,3095,2.494,1
499637,4.484,0.828,-6.68,-0.707,-1.313,-0.428,-89.7,3.45,-19.65,27.5,3401,2.741,0
499691,7.111,3.836,-6.258,-0.185,0.161,0.014,-92.1,9.45,-27.15,27.5,3491,2.813,0
499745,6.407,3.85,-6.958,-0.411,0.544,-0.751,-92.1,9.45,-27.15,27.6,3035,2.446,0
499796,0.0,0.0,0.0,0.0,0.0,0.0,-2536.8,2450.1,-3073.2,21.0,3225,2.599,1
499847,0.0,0.0,0.0,0.0,0.0,0.0,-2536.8,2450.1,-3073.2,21.0,3065,2.47,1
499898,0.0,0.0,0.0,0.0,0.0,0.0,-2536.8,2450.1,-3073.2,21.0,3101,2.499,1
499952,3.812,6.39,-9.565,-0.864,1.079,0.56,-93.3,24.15,-26.1,27.7,3053,2.46,0
500006,5.064,6.685,-4.647,-1.321,-0.071,-1.205,-90.9,31.2,-25.95,27.8,2887,2.327,0
500060,3.654,5.533,-8.423,-0.612,0.066,-1.196,-90.9,31.2,-25.95,27.4,3029,2.441,0
500114,2.947,7.065,-5.306,-0.842,-0.921,-1.427,-87.0,48.0,-27.15,27.6,3165,2.551,0
500168,3.871,5.698,-3.812,-0.409,-0.332,-1.456,-87.0,48.0,-27.15,27.6,2976,2.398,0
500222,-0.048,7.764,-5.636,0.256,-0.343,-0.958,-87.0,48.0,-27.15,27.6,3043,2.452,0
500276,2.133,8.495,-5.89,-0.324,-1.482,-0.761,-87.0,48.0,-27.15,27.6,3029,2.441,0
500330,2.595,8.55,-4.961,-1.005,-0.688,-1.393,-71.7,72.0,-44.4,27.5,3415,2.752,0
500384,0.273,8.212,-4.752,-0.168,-0.115,-1.2,-71.7,72.0,-44.4,27.6,3499,2.82,0
500438,-0.711,8.373,-6.139,-0.97,-0.14,-1.082,-71.7,72.0,-44.4,27.5,3645,2.937,0
500492,-1.197,8.959,-3.689,-1.348,-0.408,-1.172,-46.65,91.05,-43.2,27.8,3624,2.92,0
500546,-1.422,6.29,-2.308,-1.5,-0.318,-1.454,-46.65,91.05,-43.2,27.8,3694,2.977,0
500600,-2.042,6.443,-3.508,0.133,0.09,-0.9,-33.15,100.05,-35.1,27.9,3723,3.0,0
500654,-2.514,7.717,-3.443,0.059,-0.688,-1.556,-33.15,100.05,-35.1,27.6,3744,3.017,0
500708,-3.304,8.569,-1.264,-0.12,0.263,-0.935,-20.1,102.45,-37.2,27.5,3720,2.998,0
500762,-5.152,8.023,-2.131,0.056,0.69,-1.226,-20.1,102.45,-37.2,27.2,3749,3.021,0
500816,-5.598,9.072,-0.124,-1.297,-0.332,-0.704,-9.75,104.85,-33.75,27.5,3803,3.065,0
500870,-5.025,6.632,-1.231,-0.119,0.644,-1.206,-9.75,104.85,-33.75,27.6,3772,3.04,0
500924,-2.794,5.873,-1.92,1.424,2.356,-0.525,0.9,105.3,-31.5,27.7,3775,3.042,0
500978,-6.074,7.609,-4.281,-0.744,0.646,-2.797,13.65,102.45,-38.25,27.6,3768,3.036,0
501032,-9.469,4.841,-5.387,-0.744,2.449,-1.142,13.65,102.45,-38.25,27.6,3806,3.067,0
501086,-8.911,2.547,-4.338,-0.472,-0.401,-1.606,28.8,101.1,-34.05,27.7,3776,3.043,0
501140,-9.23,2.093,-5.564,-0.772,1.046,0.222,28.8,101.1,-34.05,27.6,3696,2.978,0
501194,-16.257,2.184,-6.936,-0.692,-3.445,-0.087,27.45,100.8,-28.8,27.4,3707,2.987,0
501248,-3.036,1.18,-3.433,0.608,-2.272,2.76,27.45,100.8,-28.8,27.2,3647,2.939,0
501302,-0.895,5.442,-1.381,1.494,1.058,2.889,27.45,100.8,-28.8,27.5,3580,2.885,0
501356,-3.656,8.432,-4.362,1.232,1.8,2.832,27.45,100.8,-28.8,27.6,3381,2.725,0
501410,-2.871,7.824,-5.124,-0.411,-0.297,2.439,-22.8,104.1,-34.5,27.5,3064,2.469,0
501464,0.687,5.701,-3.51,0.891,-0.412,2.93,-22.8,104.1,-34.5,27.5,2807,2.262,0
501518,3.436,5.873,-7.357,2.431,0.458,2.892,-22.8,104.1,-34.5,27.5,2288,1.844,0
501572,1.944,6.555,-4.99,-0.772,2.368,2.898,-67.2,69.75,-34.05,27.5,1267,1.021,0
501626,1.848,4.954,-7.623,1.645,0.163,1.767,-67.2,69.75,-34.05,27.5,1503,1.211,0
501680,3.182,6.852,-7.254,0.068,1.765,2.538,-67.2,69.75,-34.05,27.5,832,0.67,0
501734,5.851,6.68,-6.306,0.324,0.642,1.747,-67.2,69.75,-34.05,27.2,1124,0.906,0
501788,7.058,5.329,-7.774,1.507,1.041,0.382,-76.35,44.85,-17.55,27.9,441,0.355,0
501842,4.35,5.729,-7.748,-0.428,0.315,1.591,-76.35,44.85,-17.55,27.5,781,0.629,0
501896,5.827,4.618,-4.353,0.044,1.277,1.126,-79.05,36.9,-12.15,27.7,848,0.683,0
501950,8.226,6.203,-6.773,-0.672,0.023,0.554,-79.05,36.9,-12.15,27.5,119,0.096,0
502004,6.85,0.745,-4.721,0.557,0.628,0.913,-79.5,27.9,-6.3,27.4,166,0.134,0
502058,7.535,5.883,-6.163,-0.177,0.04,0.962,-79.5,27.9,-6.3,27.5,103,0.083,0
502112,7.496,2.109,-5.191,0.45,0.651,0.574,-79.5,19.05,-1.5,27.2,87,0.07,0
502166,7.831,3.496,-6.057,0.164,0.056,0.544,-80.1,12.3,2.1,27.6,137,0.11,0
502220,6.704,2.725,-5.207,-0.095,0.726,1.017,-80.1,12.3,2.1,27.4,149,0.12,0
502274,9.34,3.859,-6.886,0.677,-0.402,0.097,-77.1,6.9,3.15,27.6,101,0.081,0
502328,9.78,4.63,-7.839,-0.27,0.078,-0.095,-77.1,6.9,3.15,27.4,125,0.101,0
502382,10.108,5.425,-9.493,-0.01,-0.669,-1.503,-77.1,6.9,3.15,27.6,126,0.102,0
502436,7.626,4.705,-7.266,-1.458,0.092,-0.491,-77.1,6.9,3.15,27.6,177,0.143,0
502490,7.949,3.929,-6.759,-0.811,-0.531,-1.68,-78.3,17.1,-0.15,27.6,153,0.123,0
502544,8.588,4.415,-6.613,-0.482,-0.64,-1.843,-78.3,17.1,-0.15,27.7,351,0.283,0
502598,8.011,5.571,-6.215,-1.074,-0.426,-1.707,-78.3,17.1,-0.15,27.5,1031,0.831,0
502652,7.724,5.49,-4.697,-0.597,-0.126,-1.878,-78.3,17.1,-0.15,27.6,1920,1.547,0
502706,4.559,5.978,-4.396,-0.399,-0.549,-2.234,-69.6,47.1,-8.7,27.2,2835,2.285,0
502760,2.717,7.015,-4.772,-0.501,-1.061,-2.122,-69.6,47.1,-8.7,27.5,2907,2.343,0
502814,2.586,6.993,-4.156,-0.415,-0.382,-1.817,-69.6,47.1,-8.7,27.6,2901,2.338,0
502868,1.128,8.078,-5.001,-0.442,-0.862,-1.951,-57.15,81.3,-26.1,27.5,2919,2.352,0
502922,1.386,7.97,-4.053,-0.718,-0.713,-1.858,-57.15,81.3,-26.1,27.4,2951,2.378,0
502976,-0.587,8.629,-4.858,-0.278,-0.874,-2.12,-40.2,95.85,-30.6,27.8,3296,2.656,0
503030,-0.232,7.305,-3.551,-0.556,-1.104,-2.34,-40.2,95.85,-30.6,27.6,3365,2.712,0
503084,-3.534,8.124,-4.853,-0.427,-0.26,-2.07,-20.85,104.7,-29.55,27.5,3492,2.814,0
503138,-3.802,7.35,-3.318,-0.768,-1.084,-1.812,-20.85,104.7,-29.55,27.5,3661,2.95,0
503192,-3.409,7.333,-2.995,-0.649,-0.708,-1.791,-1.2,108.0,-26.1,27.4,3733,3.008,0
503246,-4.899,5.033,-0.8,0.297,-0.387,-2.484,-1.2,108.0,-26.1,27.9,3749,3.021,0
503300,-6.17,6.644,-2.43,-0.295,-0.046,-1.683,15.45,106.5,-22.35,27.5,3717,2.995,0
503354,-6.754,5.48,-2.626,-1.01,-0.317,-1.689,15.45,106.5,-22.35,27.5,3716,2.995,0
503408,-7.726,2.725,-0.599,0.862,0.003,-1.695,29.25,101.85,-18.0,27.6,3591,2.894,0
503462,-10.503,3.455,-1.425,-0.278,0.524,-0.1,29.25,101.85,-18.0,27.6,3601,2.902,0
503516,-9.943,6.167,-1.566,-0.715,0.289,-1.31,29.25,101.85,-18.0,27.6,3553,2.863,0
503570,-8.712,1.851,-2.337,-0.984,-0.241,-0.58,45.15,94.8,-14.4,27.7,3535,2.849,0
503624,-8.705,3.426,-0.934,0.391,0.173,0.008,45.15,94.8,-14.4,27.3,3368,2.714,0
503678,-10.072,2.531,-0.646,-1.308,1.197,0.402,45.15,94.8,-14.4,27.4,3307,2.665,0
503732,-10.704,-0.687,-1.441,-0.412,0.576,1.911,45.15,94.8,-14.4,27.7,3205,2.583,0
503786,-7.515,0.627,-2.682,2.449,-0.827,3.456,39.3,96.75,-11.1,27.6,3035,2.446,0
503840,-2.593,6.876,-3.144,2.735,-0.03,3.238,39.3,96.75,-11.1,27.5,2469,1.99,0
503894,-2.397,9.45,-4.207,0.66,1.854,2.522,39.3,96.75,-11.1,27.6,1290,1.04,0
503948,-4.075,6.642,-4.547,-0.553,1.211,1.888,39.3,96.75,-11.1,27.6,1733,1.397,0
504002,-2.67,4.274,-3.95,0.698,-0.196,2.726,-15.6,103.5,-32.4,27.6,551,0.444,0
504056,6.694,11.025,-7.396,1.65,1.772,2.652,-35.85,95.7,-41.1,27.4,155,0.125,0
504110,-0.467,3.601,-4.812,0.233,0.634,1.851,-35.85,95.7,-41.1,27.6,1531,1.234,0
504164,2.729,10.532,-6.302,1.459,1.362,1.896,-58.95,73.65,-35.25,27.4,714,0.575,0
504218,0.974,2.145,-2.842,0.187,0.513,2.581,-58.95,73.65,-35.25,27.5,151,0.122,0
504272,2.83,12.392,-7.779,1.405,1.207,2.329,-63.45,55.8,-24.3,27.6,164,0.132,0
504326,11.155,-0.232,-6.275,0.173,-0.79,1.532,-63.45,55.8,-24.3,27.6,231,0.186,0
504380,8.574,7.839,-8.59,-0.586,0.772,1.927,-68.7,43.8,-21.0,27.5,159,0.128,0
504434,7.477,1.329,-5.95,1.387,1.459,0.503,-68.7,43.8,-21.0,27.4,155,0.125,0
504488,5.045,4.571,-6.622,-0.291,0.71,1.83,-74.7,34.5,-12.6,27.6,139,0.112,0
504542,10.578,4.642,-7.542,0.446,1.132,1.056,-74.7,34.5,-12.6,27.2,147,0.118,0
504596,5.066,1.12,-5.119,0.004,0.481,0.843,-74.7,34.5,-12.6,27.5,119,0.096,0
504650,8.564,3.998,-6.61,-0.082,0.93,1.384,-78.15,17.4,-2.1,27.6,155,0.125,0
504704,8.442,3.089,-5.792,-0.356,-0.019,0.379,-78.15,17.4,-2.1,27.7,150,0.121,0
504758,6.718,0.745,-4.068,-0.004,0.569,0.744,-78.15,17.4,-2.1,27.5,179,0.144,0
504812,7.331,0.891,-3.584,0.383,0.297,0.915,-78.15,17.4,-2.1,27.5,145,0.117,0
504866,8.413,1.065,-5.499,0.768,0.733,1.006,-74.4,-0.3,10.2,27.4,158,0.127,0
504920,10.769,2.203,-5.162,0.102,0.355,0.799,-74.4,-0.3,10.2,27.6,136,0.11,0
504974,9.404,3.237,-6.972,0.979,0.028,-0.217,-74.4,-0.3,10.2,27.6,131,0.106,0
505028,11.542,3.23,-7.93,-0.569,-0.18,-0.413,-74.4,-0.3,10.2,27.3,143,0.115,0
505082,9.91,3.321,-7.266,-0.879,-0.358,-0.916,-71.55,-7.2,14.85,27.4,164,0.132,0
505136,12.256,3.026,-7.384,-1.091,-0.745,-1.366,-71.55,-7.2,14.85,27.6,123,0.099,0
505190,8.689,3.261,-7.24,-0.875,-1.328,-2.08,-74.85,0.3,7.95,27.6,164,0.132,0
505244,10.805,3.156,-6.771,-1.335,-1.198,-2.103,-77.55,16.8,-1.95,27.5,176,0.142,0
505298,7.542,4.487,-6.651,-0.829,-1.803,-2.551,-77.55,16.8,-1.95,27.4,277,0.223,0
505352,6.579,4.843,-6.072,-1.257,-1.026,-1.9,-75.15,37.05,-15.3,27.6,1767,1.424,0
505406,6.031,6.285,-6.189,-1.571,-1.334,-2.333,-75.15,37.05,-15.3,27.4,2539,2.046,0
505460,3.261,5.31,-3.587,-1.01,-0.675,-2.151,-69.45,55.05,-21.3,27.5,2641,2.128,0
505514,2.121,7.039,-4.841,-1.067,-1.237,-1.99,-69.45,55.05,-21.3,27.4,2037,1.642,0
505568,2.945,6.804,-4.393,-0.664,-1.233,-2.454,-59.4,75.9,-32.25,27.4,1571,1.266,0
505622,-0.668,6.567,-3.692,-1.126,-0.889,-1.896,-59.4,75.9,-32.25,27.4,2257,1.819,0
505676,-0.352,6.381,-2.983,-0.775,-0.873,-2.065,-39.0,94.65,-36.15,27.6,2699,2.175,0
505730,-3.043,6.972,-2.986,-0.64,-0.84,-1.742,-39.0,94.65,-36.15,27.5,3079,2.481,0
505784,-2.861,7.42,-3.067,-0.79,-0.657,-1.4,-18.75,103.8,-33.75,27.6,3139,2.53,0
505838,-4.46,6.773,-2.289,-0.47,-0.837,-1.52,-18.75,103.8,-33.75,27.6,3114,2.509,0
505892,-4.085,6.129,-1.185,-0.947,-0.38,-1.02,-18.75,103.8,-33.75,27.6,3181,2.563,0
505946,-5.564,5.768,-1.336,0.003,0.537,-1.631,12.75,103.8,-23.85,27.6,3264,2.63,0
506000,-7.927,7.386,-1.896,-0.49,0.254,-1.372,12.75,103.8,-23.85,27.4,3271,2.636,0
506054,-7.819,5.229,-0.998,-1.479,-0.558,-1.794,12.75,103.8,-23.85,27.3,3208,2.585,0
506108,-7.539,2.866,-1.271,-0.382,0.101,-1.024,12.75,103.8,-23.85,27.6,3187,2.568,0
506162,-9.124,5.341,-1.049,-0.288,0.457,-0.785,35.55,96.75,-12.6,27.5,3359,2.707,0
506216,-9.639,2.851,-0.405,-1.322,0.344,-0.803,35.55,96.75,-12.6,27.6,3383,2.726,0
506270,-10.238,2.107,-0.385,-0.014,0.37,0.285,42.6,93.0,-8.85,27.9,3488,2.811,0
506324,-9.218,3.915,-1.082,0.779,-0.144,0.626,42.6,93.0,-8.85,27.6,3407,2.746,0
506378,-8.444,4.913,0.098,-0.926,0.52,0.426,40.05,95.7,-11.1,27.4,3032,2.443,0
506432,-8.983,0.211,-1.056,-0.253,0.96,2.033,33.45,98.55,-8.7,27.6,2697,2.173,0
506486,-7.063,1.657,-0.79,1.255,-0.073,2.938,33.45,98.55,-8.7,27.3,1897,1.529,0
506540,-4.005,5.045,-1.736,1.698,1.218,5.517,9.75,105.3,-19.8,27.6,467,0.376,0
506594,-2.061,6.589,-5.021,1.663,-0.038,3.597,9.75,105.3,-19.8,27.8,437,0.352,0
506648,-0.297,13.417,-3.002,-1.006,3.431,4.458,-23.4,99.3,-38.7,27.7,139,0.112,0
506702,-1.051,8.037,-7.669,1.544,-0.037,0.921,-23.4,99.3,-38.7,27.6,149,0.12,0
506756,-0.876,7.621,-1.913,1.463,2.839,2.706,-46.35,85.2,-32.25,27.5,183,0.147,0
506810,6.634,7.93,-8.392,1.165,-0.36,1.381,-46.35,85.2,-32.25,27.5,104,0.084,0
506864,-1.159,8.643,-6.871,0.883,2.331,2.301,-59.55,67.95,-25.95,27.9,163,0.131,0
506918,7.556,7.13,-7.906,1.156,0.248,0.928,-59.55,67.95,-25.95,27.5,95,0.077,0
506972,6.28,8.614,-6.776,-0.313,1.685,1.943,-59.55,67.95,-25.95,27.4,952,0.767,0
507026,4.748,4.219,-5.581,1.033,0.096,0.391,-67.35,49.8,-13.05,27.5,1275,1.027,0
507080,4.927,6.603,-6.946,0.464,0.757,0.912,-67.35,49.8,-13.05,27.6,209,0.168,0
507134,4.551,4.853,-5.248,0.569,0.98,1.196,-67.35,49.8,-13.05,27.6,172,0.139,0
507188,7.175,5.514,-7.132,0.548,0.594,0.767,-67.35,49.8,-13.05,27.5,121,0.098,0
507242,6.299,2.727,-4.403,0.086,1.164,1.617,-72.6,33.6,-3.6,27.4,133,0.107,0
507296,9.778,4.314,-6.076,0.69,0.44,0.407,-72.6,33.6,-3.6,27.6,147,0.118,0
507350,6.457,1.496,-4.281,0.223,1.146,1.278,-72.6,33.6,-3.6,27.5,195,0.157,0
507404,8.155,0.943,-4.154,0.557,0.448,1.027,-72.6,33.6,-3.6,27.4,160,0.129,0
507458,9.534,2.315,-4.492,0.792,0.891,1.176,-72.75,14.1,10.05,27.2,176,0.142,0
507512,9.021,1.657,-4.539,0.714,0.248,0.677,-72.75,14.1,10.05,27.5,143,0.115,0
507566,10.367,0.979,-5.124,0.188,0.646,1.048,-69.45,5.85,16.95,27.4,134,0.108,0
507620,26.894,14.078,-39.227,-2.96,-0.106,6.859,-67.35,-1.5,21.9,27.5,85,0.068,0
507674,8.892,-0.144,-3.783,0.12,-0.03,0.069,-67.35,-1.5,21.9,27.4,96,0.077,0
507728,9.23,-1.142,-4.647,1.143,-1.009,-1.647,-67.35,-3.45,19.65,27.5,107,0.086,0
507782,11.99,3.936,-4.741,-1.039,0.419,0.645,-67.35,-3.45,19.65,27.6,98,0.079,0
507836,12.656,1.369,-5.547,0.217,-0.388,-1.296,-71.55,7.2,12.75,27.5,142,0.114,0
507890,7.434,1.207,-6.402,0.487,-0.96,-1.362,-71.55,7.2,12.75,27.2,148,0.119,0
507944,13.051,2.66,-6.862,-0.554,-1.101,-1.407,-73.5,18.75,5.25,27.3,127,0.102,0
507998,7.702,3.335,-4.899,-0.962,-1.753,-1.636,-73.5,18.75,5.25,27.6,695,0.56,0
508052,9.536,5.404,-7.925,-0.546,-1.859,-2.423,-73.5,31.5,-3.45,27.5,657,0.529,0
508106,6.053,3.089,-5.49,-1.12,-1.605,-2.069,-73.5,31.5,-3.45,27.6,937,0.755,0
508160,4.264,5.054,-6.112,-0.887,-1.577,-1.854,-70.95,49.65,-14.4,27.6,1969,1.587,0
508214,5.164,3.783,-5.72,-1.502,-1.413,-1.636,-70.95,49.65,-14.4,27.4,2334,1.881,0
508268,3.108,6.898,-6.845,-0.509,-1.524,-2.109,-70.95,49.65,-14.4,27.6,1898,1.53,0
508322,1.733,6.273,-6.436,-0.728,-1.466,-2.016,-54.15,78.3,-35.25,27.6,1982,1.597,0
508376,-0.546,5.559,-4.891,-0.351,-1.309,-1.934,-54.15,78.3,-35.25,27.2,2169,1.748,0
508430,-0.373,8.787,-5.76,-1.121,-1.209,-1.244,-54.15,78.3,-35.25,27.4,2529,2.038,0
508484,-1.712,6.991,-4.662,-0.369,-1.266,-2.002,-54.15,78.3,-35.25,27.6,2699,2.175,0
508538,-3.61,6.06,-3.934,-0.566,-1.503,-1.425,-18.0,98.4,-41.1,27.4,2888,2.327,0
508592,-2.349,8.294,-4.235,-1.107,-1.075,-1.235,-18.0,98.4,-41.1,27.3,3019,2.433,0
508646,-5.069,5.607,-2.641,-0.387,-1.014,-1.671,-2.7,102.15,-37.05,27.4,3121,2.515,0
508700,-3.713,5.995,-2.78,-0.753,-0.984,-1.523,-2.7,102.15,-37.05,27.6,3259,2.626,0
508754,-6.744,6.208,-1.681,-0.609,-0.726,-1.337,12.9,101.7,-29.55,27.6,3197,2.576,0
508808,-7.602,2.1,1.374,-0.588,-0.331,-1.097,12.9,101.7,-29.55,27.2,3113,2.509,0
508862,-14.145,3.438,1.03,-0.301,1.268,0.681,24.3,99.45,-24.3,27.3,3111,2.507,0
508916,-10.537,1.027,0.072,1.177,-0.181,0.453,22.35,99.75,-24.75,27.6,2933,2.364,0
508970,-6.821,5.899,-1.35,0.811,1.175,1.918,22.35,99.75,-24.75,27.3,2583,2.082,0
509024,-4.875,6.194,-3.148,0.682,0.963,1.47,10.5,101.1,-34.8,27.4,1959,1.579,0
509078,-6.105,4.159,-3.153,0.949,1.088,2.125,10.5,101.1,-34.8,27.6,1272,1.025,0
509132,-1.257,8.466,-3.68,0.025,1.554,2.473,-8.85,101.25,-42.3,27.4,1067,0.86,0
509186,-0.893,6.256,-5.42,1.183,0.798,1.066,-8.85,101.25,-42.3,27.5,112,0.09,0
509240,-1.614,5.978,-3.996,-0.186,1.374,2.882,-29.85,93.3,-44.4,27.6,117,0.094,0
509294,3.134,9.742,-6.053,0.635,1.257,1.873,-29.85,93.3,-44.4,27.5,137,0.11,0
509348,-0.515,3.881,-5.42,1.469,0.754,1.658,-29.85,93.3,-44.4,27.2,107,0.086,0
509402,4.082,4.707,-5.533,0.412,1.736,3.265,-29.85,93.3,-44.4,27.4,131,0.106,0
509456,6.16,9.153,-7.444,1.18,1.412,1.53,-65.85,58.35,-29.85,27.5,105,0.085,0
509510,5.25,2.2,-6.134,1.567,1.19,1.754,-65.85,58.35,-29.85,27.2,131,0.106,0
509564,8.514,8.435,-7.022,-0.041,1.03,2.573,-65.85,58.35,-29.85,27.2,225,0.181,0
509618,9.163,2.739,-7.453,2.009,0.406,0.311,-73.65,31.95,-10.95,27.6,160,0.129,0
509672,7.202,3.998,-8.411,0.337,0.544,1.002,-73.65,31.95,-10.95,27.4,128,0.103,0
509726,8.487,2.983,-6.299,0.369,1.015,1.4,-74.85,25.8,-8.7,27.4,140,0.113,0
509780,7.01,1.851,-5.856,0.604,0.379,0.796,-74.85,25.8,-8.7,27.4,142,0.114,0
509834,9.74,2.145,-6.907,0.626,0.545,0.56,-75.15,17.4,-3.6,27.4,149,0.12,0
509888,7.396,1.669,-5.689,0.199,0.586,0.693,-75.15,17.4,-3.6,27.8,121,0.098,0
509942,7.446,-0.778,-4.25,0.658,0.651,0.997,-75.15,11.1,0.3,27.6,113,0.091,0
509996,10.116,1.556,-6.95,0.914,0.689,0.659,-75.15,11.1,0.3,27.6,117,0.094,0
510050,8.677,-0.4,-6.076,0.088,0.785,1.006,-73.65,4.2,5.85,27.6,135,0.109,0
510104,8.198,-0.515,-5.957,-0.705,-0.56,-0.04,-72.6,-3.45,7.2,27.6,163,0.131,0
510158,8.789,0.065,-10.106,0.739,-0.288,-1.447,-72.6,-3.45,7.2,27.6,124,0.1,0
510212,9.9,5.868,-8.384,-0.98,-0.148,0.319,-72.6,-3.45,7.2,27.3,125,0.101,0
510266,11.459,2.483,-8.377,-1.004,-0.936,-1.306,-72.6,-3.45,7.2,27.3,109,0.088,0
510320,8.011,1.851,-6.663,-1.424,-1.137,-1.337,-75.45,10.2,0.15,27.5,139,0.112,0
510374,9.122,3.122,-7.678,-1.308,-1.217,-1.371,-75.45,10.2,0.15,27.6,169,0.136,0
510428,9.069,3.888,-7.032,-1.288,-1.337,-2.039,-75.45,10.2,0.15,27.4,182,0.147,0
510482,7.013,3.378,-6.565,-1.641,-1.264,-1.813,-75.45,10.2,0.15,27.2,1048,0.845,0
510536,6.215,5.318,-6.495,-1.048,-1.399,-2.405,-72.15,40.95,-19.65,27.5,1663,1.34,0
510590,3.424,4.034,-5.387,-1.545,-1.03,-1.656,-72.15,40.95,-19.65,27.4,1938,1.562,0
510644,3.754,6.783,-4.764,-1.365,-1.035,-1.714,-68.1,57.15,-29.55,27.6,1469,1.184,0
510698,0.687,6.91,-4.678,-0.555,-1.28,-2.17,-56.55,76.5,-40.2,27.5,1749,1.409,0
510752,0.204,6.859,-4.647,-1.046,-0.917,-1.631,-56.55,76.5,-40.2,27.3,1891,1.524,0
510806,-0.543,6.177,-3.153,-0.815,-0.872,-1.389,-39.75,92.4,-40.95,27.0,1896,1.528,0
510860,-0.783,8.72,-4.891,-0.837,-0.78,-1.595,-39.75,92.4,-40.95,27.4,2117,1.706,0
510914,-3.057,5.938,-2.732,-0.633,-0.628,-1.531,-22.05,101.1,-36.6,27.5,2267,1.827,0
510968,-3.436,7.949,-3.436,-0.151,-0.929,-1.694,-22.05,101.1,-36.6,27.5,2841,2.289,0
511022,-3.922,7.357,-2.871,-1.021,-0.682,-1.253,-6.0,104.85,-33.75,27.5,2905,2.341,0
511076,-5.602,5.839,-1.958,-0.18,-0.398,-1.163,-6.0,104.85,-33.75,27.4,3056,2.463,0
511130,-4.889,7.295,-1.779,-0.621,-0.653,-1.214,-6.0,104.85,-33.75,27.5,3035,2.446,0
511184,-7.377,3.654,1.815,-0.698,0.639,-0.867,-6.0,104.85,-33.75,27.4,2712,2.185,0
511238,-9.273,5.365,-0.005,0.744,-0.297,-1.177,17.85,102.45,-25.2,27.4,2579,2.078,0
511292,-10.312,1.709,1.535,-0.39,1.722,1.123,17.85,102.45,-25.2,27.4,2464,1.986,0
511346,-8.138,5.179,-1.118,1.258,0.516,0.916,17.85,102.45,-25.2,27.5,1136,0.915,0
511400,-4.597,4.654,-2.361,0.646,1.654,2.43,7.5,103.05,-33.0,27.7,1937,1.561,0
511454,-3.91,4.779,-2.478,1.232,1.028,2.277,7.5,103.05,-33.0,27.6,1159,0.934,0
511508,-1.061,10.59,-5.124,-0.39,1.774,2.516,-15.75,99.45,-41.4,27.5,315,0.254,0
511562,-3.043,2.179,-3.491,1.61,1.019,2.024,-15.75,99.45,-41.4,27.4,179,0.144,0
511616,4.432,9.799,-4.48,-0.428,2.155,4.068,-37.8,91.05,-41.4,27.3,109,0.088,0
511670,4.422,8.543,-9.524,3.238,-0.217,-0.936,-37.8,91.05,-41.4,27.2,111,0.089,0
511724,-1.935,2.557,-3.575,-0.469,1.676,3.419,-52.05,73.35,-42.0,27.4,109,0.088,0
511778,8.662,12.881,-8.236,0.669,1.324,1.766,-52.05,73.35,-42.0,27.4,119,0.096,0
511832,0.46,2.203,-7.14,1.829,0.763,0.893,-52.05,73.35,-42.0,27.5,120,0.097,0
511886,6.44,6.017,-8.42,-0.585,1.632,2.86,-67.35,46.35,-24.0,27.4,1166,0.94,0
511940,6.874,5.713,-7.918,2.076,0.382,-0.16,-67.35,46.35,-24.0,27.2,117,0.094,0
511994,5.27,1.101,-7.558,0.046,1.21,1.814,-67.35,46.35,-24.0,27.2,124,0.1,0
512048,7.604,4.415,-7.36,1.018,0.622,0.695,-67.35,46.35,-24.0,27.3,123,0.099,0
512102,6.771,2.277,-8.353,0.765,0.32,0.547,-74.1,28.5,-12.0,27.4,115,0.093,0
512156,6.926,3.986,-6.278,-0.255,0.758,1.391,-74.1,28.5,-12.0,27.5,111,0.089,0
512210,6.553,0.879,-4.688,1.171,0.326,0.626,-74.4,19.65,-7.65,27.4,1272,1.025,0
512264,8.787,1.35,-7.456,0.68,0.459,0.694,-74.4,19.65,-7.65,27.5,2572,2.073,0
512318,7.283,1.925,-6.56,0.244,0.732,0.714,-75.15,15.45,-3.15,27.4,2164,1.744,0
512372,7.774,0.646,-5.851,0.56,0.496,0.472,-75.15,15.45,-3.15,27.5,2575,2.075,0
512426,9.697,1.331,-7.599,0.943,-0.02,-0.153,-74.25,10.5,2.25,27.4,2439,1.965,0
512480,7.075,-0.201,-6.598,-0.104,0.321,0.505,-74.25,10.5,2.25,27.5,1699,1.369,0
512534,8.849,1.302,-6.735,-0.007,-0.17,-0.068,-74.25,10.5,2.25,27.6,2938,2.368,0
512588,8.408,0.321,-6.232,-0.047,-0.133,-0.098,-73.95,6.3,4.2,27.4,2921,2.354,0
512642,8.964,0.869,-7.228,-0.513,-0.158,-0.151,-73.95,6.3,4.2,27.2,2008,1.618,0
512696,7.796,1.465,-6.84,-0.423,-0.26,-0.547,-73.95,6.3,4.2,27.3,1191,0.96,0
512750,8.717,0.927,-7.056,-0.602,-0.613,-0.634,-73.95,6.3,4.2,27.4,2087,1.682,0
512804,9.072,2.631,-8.078,-1.163,-0.629,-0.901,-75.6,12.75,-4.35,27.4,1499,1.208,0
512858,9.335,1.891,-8.282,-1.446,-0.925,-1.528,-75.6,12.75,-4.35,27.3,680,0.548,0
512912,6.642,4.034,-6.814,-1.405,-0.934,-1.424,-75.45,22.95,-9.6,27.6,159,0.128,0
512966,8.473,4.183,-7.161,-1.663,-1.065,-1.473,-75.45,22.95,-9.6,27.5,787,0.634,0
513020,5.588,4.08,-6.747,-0.793,-1.79,-2.003,-73.2,36.9,-14.7,27.5,2277,1.835,0
513074,5.775,4.41,-5.59,-1.875,-0.776,-1.19,-68.1,48.3,-25.5,27.7,1961,1.58,0
513128,4.65,7.068,-6.153,-0.587,-2.011,-2.362,-68.1,48.3,-25.5,27.2,1508,1.215,0
513182,0.802,5.205,-5.519,-1.117,-0.85,-1.434,-64.65,62.7,-34.5,27.2,979,0.789,0
513236,1.958,6.393,-5.001,-1.022,-1.172,-1.438,-64.65,62.7,-34.5,27.5,2397,1.932,0
513290,0.101,7.592,-4.858,-0.265,-1.275,-1.798,-51.0,81.9,-41.55,27.3,2768,2.231,0
513344,0.484,7.561,-6.821,-0.445,-1.382,-1.884,-51.0,81.9,-41.55,27.4,2843,2.291,0
513398,-0.407,7.374,-3.757,-1.26,-0.587,-1.005,-51.0,81.9,-41.55,27.5,2897,2.335,0
513452,-3.021,7.389,-4.31,-0.074,-1.472,-1.862,-51.0,81.9,-41.55,27.3,3099,2.497,0
513506,-2.849,7.017,-4.219,-0.985,-0.573,-1.383,-15.9,98.55,-44.85,27.5,3225,2.599,0
513560,-5.229,5.363,-2.78,-0.588,-1.01,-1.503,-15.9,98.55,-44.85,27.6,3415,2.752,0
513614,-4.848,5.614,-0.95,-0.632,-0.343,-0.75,-15.9,98.55,-44.85,27.4,3431,2.765,0
513668,-7.187,6.993,-2.89,-0.083,-0.658,-0.976,-15.9,98.55,-44.85,27.2,3299,2.659,0
513722,-6.452,5.274,0.17,-0.524,0.256,-0.443,9.45,100.65,-36.6,27.6,3280,2.643,0
513776,-9.804,4.769,-0.496,-0.195,0.163,0.1,14.7,101.85,-32.7,27.5,3417,2.754,0
513830,-6.455,6.527,-0.599,0.287,0.282,-0.095,14.7,101.85,-32.7,27.3,3303,2.662,0
513884,-9.275,2.823,-1.022,0.077,0.792,1.012,12.45,101.85,-31.95,27.3,3199,2.578,0
513938,-5.006,6.807,-2.021,0.79,0.68,0.867,12.45,101.85,-31.95,27.2,3091,2.491,0
513992,-6.742,2.631,-3.558,0.928,0.459,1.988,1.05,102.0,-36.9,27.3,2541,2.048,0
514046,0.038,10.087,-4.295,0.907,1.143,1.286,1.05,102.0,-36.9,27.5,2058,1.658,0
514100,-5.447,4.214,-3.596,0.929,0.639,1.62,-15.9,99.3,-42.75,27.2,1865,1.503,0
514154,2.016,9.505,-6.931,0.62,1.181,1.683,-15.9,99.3,-42.75,27.2,1305,1.052,0
514208,-2.428,6.627,-6.043,1.011,0.545,1.172,-34.35,90.6,-42.45,27.5,120,0.097,0
514262,1.252,6.768,-6.479,0.721,0.86,1.79,-34.35,90.6,-42.45,27.5,120,0.097,0
514316,0.924,6.498,-5.868,1.245,0.17,1.426,-34.35,90.6,-42.45,27.5,124,0.1,0
514370,2.332,8.487,-7.453,0.444,1.486,2.239,-62.55,63.0,-38.7,27.3,107,0.086,0
514424,3.5,4.702,-8.382,1.815,0.06,0.883,-62.55,63.0,-38.7,27.4,125,0.101,0
514478,-0.029,3.903,-5.255,-0.633,2.121,3.893,-62.55,63.0,-38.7,27.6,111,0.089,0
514532,13.539,8.181,-10.104,2.403,-0.683,-0.829,-62.55,63.0,-38.7,27.2,107,0.086,0
514586,0.687,-1.386,-6.297,0.583,0.831,2.356,-76.65,36.3,-25.5,27.4,1925,1.551,0
514640,8.602,4.489,-6.488,-0.153,1.92,2.93,-76.65,36.3,-25.5,27.3,415,0.334,0
514694,4.463,-0.529,-4.894,2.441,0.381,0.534,-80.85,21.6,-16.8,27.3,149,0.12,0
514748,12.591,2.43,-8.799,-0.076,2.004,2.005,-80.85,21.6,-16.8,27.4,96,0.077,0
514802,7.353,3.51,-5.837,1.023,0.603,0.464,-83.1,11.85,-9.0,27.4,105,0.085,0
514856,4.499,-1.116,-3.771,0.843,0.839,1.223,-83.1,11.85,-9.0,27.4,95,0.077,0
514910,11.863,-0.165,-7.094,0.237,0.553,1.159,-80.4,3.75,0.3,27.2,99,0.08,0
514964,7.288,1.192,-5.734,1.071,0.546,0.274,-76.65,-4.5,9.0,27.5,117,0.094,0
515018,9.306,0.503,-7.573,0.711,0.378,0.005,-76.65,-4.5,9.0,27.4,111,0.089,0
515072,7.271,-0.948,-5.82,-0.279,0.961,0.741,-74.25,-6.75,14.4,27.2,88,0.071,0
515126,9.55,-1.185,-6.333,0.265,0.26,0.113,-74.25,-6.75,14.4,27.4,96,0.077,0
515180,12.179,1.326,-9.268,-0.306,-0.341,-0.818,-74.25,-6.75,14.4,27.5,135,0.109,0
515234,7.958,1.446,-7.319,-1.429,-0.049,-0.964,-74.25,-6.75,14.4,27.6,115,0.093,0
515288,11.586,1.628,-8.509,-1.653,-1.125,-1.621,-75.75,-3.15,13.65,27.4,121,0.098,0
515342,8.823,2.078,-6.007,-1.59,-1.06,-1.825,-75.75,-3.15,13.65,27.4,96,0.077,0
515396,10.127,3.836,-6.555,-1.672,-1.11,-1.732,-79.8,10.2,3.45,27.2,123,0.099,0
515450,7.666,2.775,-5.737,-1.259,-1.188,-2.095,-79.8,10.2,3.45,27.4,125,0.101,0
515504,7.161,3.711,-5.696,-0.831,-1.393,-2.022,-81.6,27.45,-7.65,27.2,983,0.792,0
515558,5.849,5.466,-6.704,-1.123,-1.109,-1.758,-78.3,45.0,-19.05,27.1,1980,1.596,0
515612,4.087,6.098,-6.366,-0.746,-1.219,-2.227,-78.3,45.0,-19.05,27.4,1631,1.314,0
515666,1.891,4.456,-5.308,-1.211,-0.836,-1.478,-75.0,59.7,-28.65,27.3,1088,0.877,0
515720,2.691,7.049,-5.21,-1.258,-1.039,-1.481,-75.0,59.7,-28.65,27.4,1223,0.986,0
515774,2.48,7.068,-4.659,-0.917,-1.342,-2.058,-61.35,79.95,-40.2,27.1,2147,1.73,0
515828,-0.098,7.652,-3.991,-0.381,-1.331,-1.944,-61.35,79.95,-40.2,27.5,2267,1.827,0
515882,-0.737,6.876,-4.02,-1.123,-0.774,-1.426,-61.35,79.95,-40.2,27.3,2757,2.222,0
515936,-1.817,6.84,-2.667,-0.647,-0.808,-1.616,-61.35,79.95,-40.2,27.4,2972,2.395,0
515990,-2.667,7.745,-2.258,-0.602,-0.996,-1.132,-23.85,102.45,-38.25,27.2,2976,2.398,0
516044,-2.5,8.471,-3.472,-0.436,-0.657,-1.471,-23.85,102.45,-38.25,27.2,3065,2.47,0
516098,-5.09,5.784,-1.59,-0.568,-0.515,-1.308,-23.85,102.45,-38.25,27.5,3101,2.499,0
516152,-5.701,4.762,0.247,-0.071,-0.343,-0.793,5.1,107.1,-31.8,27.4,3155,2.542,0
516206,-6.4,7.587,-0.613,0.038,-0.65,-0.954,5.1,107.1,-31.8,27.4,3187,2.568,0
516260,-10.096,4.738,0.773,0.226,0.382,0.035,11.55,104.7,-34.35,27.6,3015,2.43,0
516314,-7.171,5.456,-0.606,0.816,-0.113,-0.111,11.55,104.7,-34.35,27.3,3048,2.456,0
516368,-7.757,5.344,-0.927,0.064,0.871,0.983,9.6,102.75,-40.95,27.6,2903,2.339,0
516422,-6.493,3.598,-0.553,0.839,1.316,1.63,9.6,102.75,-40.95,27.4,2489,2.006,0
516476,-3.33,4.341,-1.482,1.292,1.282,2.202,-3.9,102.15,-44.4,27.2,2321,1.87,0
516530,0.52,9.74,-6.318,1.577,1.487,1.367,-3.9,102.15,-44.4,26.9,498,0.401,0
516584,-3.486,3.608,-4.111,1.014,1.651,2.115,-27.75,95.7,-51.6,27.4,971,0.782,0
516638,2.751,9.85,-5.851,-0.438,2.359,3.83,-27.75,95.7,-51.6,27.3,227,0.183,0
516692,4.846,6.603,-8.803,2.207,0.604,0.226,-54.75,78.75,-45.3,27.3,235,0.189,0
516746,0.06,3.479,-5.729,0.879,1.268,2.499,-54.75,78.75,-45.3,27.4,147,0.118,0
516800,8.198,9.711,-7.386,-0.009,1.932,2.643,-54.75,78.75,-45.3,27.3,159,0.128,0
516854,4.7,2.849,-6.864,2.054,0.003,0.197,-77.1,43.95,-18.9,27.2,112,0.09,0
516908,8.622,6.479,-8.452,-0.11,1.152,1.804,-77.1,43.95,-18.9,27.4,1093,0.881,0
516962,5.519,2.454,-4.489,0.628,0.493,1.174,-77.1,43.95,-18.9,27.2,115,0.093,0
517016,9.17,7.032,-8.815,0.683,0.766,0.751,-77.1,43.95,-18.9,27.5,147,0.118,0
517070,5.679,0.426,-5.473,0.096,1.086,1.588,-80.85,25.8,-9.75,27.3,155,0.125,0
517124,8.643,5.643,-6.761,0.117,0.814,0.967,-80.85,25.8,-9.75,27.6,151,0.122,0
517178,7.927,1.111,-6.22,0.621,0.707,0.686,-80.55,15.15,-1.95,27.2,159,0.128,0
517232,7.025,3.91,-6.076,0.091,0.646,0.816,-80.55,15.15,-1.95,27.4,136,0.11,0
517286,8.811,-0.553,-4.317,0.46,0.908,1.401,-79.5,8.7,4.8,27.2,135,0.109,0
517340,9.419,2.131,-5.801,1.046,0.454,0.617,-74.85,0.3,10.2,27.4,160,0.129,0
517394,8.966,-0.414,-6.153,0.312,0.717,0.81,-74.85,0.3,10.2,27.5,149,0.12,0
517448,10.817,3.668,-8.447,0.2,-0.333,-0.105,-73.35,-4.95,15.3,27.2,147,0.118,0
517502,9.208,2.674,-8.712,-0.425,-0.546,-0.702,-73.35,-4.95,15.3,27.4,111,0.089,0
517556,9.766,1.573,-7.544,-1.488,-0.722,-0.72,-77.25,0.45,11.1,27.4,139,0.112,0
517610,9.301,3.184,-7.293,-0.89,-1.419,-1.696,-77.25,0.45,11.1,27.3,175,0.141,0
517664,7.827,2.078,-5.964,-1.366,-1.135,-1.205,-77.25,0.45,11.1,27.4,160,0.129,0
517718,9.603,4.606,-7.788,-0.633,-1.82,-2.38,-77.25,0.45,11.1,27.2,156,0.126,0
517772,6.067,2.14,-5.923,-1.35,-1.238,-1.567,-79.65,28.95,-13.05,27.6,155,0.125,0
517826,7.41,4.822,-7.233,-0.923,-1.576,-2.042,-79.65,28.95,-13.05,27.5,1149,0.926,0
517880,3.869,3.658,-6.462,-0.633,-1.504,-2.03,-79.65,28.95,-13.05,27.2,2107,1.698,0
517934,4.848,6.024,-6.345,-1.056,-1.169,-1.552,-72.75,57.75,-39.6,27.4,1359,1.095,0
517988,1.511,5.6,-5.713,-0.576,-1.443,-2.04,-72.75,57.75,-39.6,27.5,1084,0.874,0
518042,2.416,6.814,-5.808,-1.045,-1.005,-1.694,-58.5,77.25,-49.65,27.5,1200,0.967,0
518096,-0.656,6.67,-5.164,-0.602,-1.058,-1.802,-58.5,77.25,-49.65,27.4,1107,0.892,0
518150,-1.757,6.716,-4.76,-1.035,-0.775,-1.34,-40.35,89.85,-53.1,27.4,2289,1.845,0
518204,-2.303,7.197,-4.164,-0.661,-0.742,-1.292,-40.35,89.85,-53.1,27.4,2395,1.93,0
518258,-3.208,7.269,-4.413,-1.083,-0.399,-1.256,-22.65,98.55,-47.85,27.6,2795,2.252,0
518312,-3.565,5.777,-2.083,-0.987,-0.348,-1.042,-22.65,98.55,-47.85,27.2,2860,2.305,0
518366,-3.287,7.932,-3.194,-0.378,-0.897,-1.466,-10.35,102.45,-42.0,27.2,2988,2.408,0
518420,-6.644,6.172,-1.822,-0.751,0.039,-0.751,-10.35,102.45,-42.0,27.2,3168,2.553,0
518474,-3.757,7.472,-3.22,-0.042,-0.849,-1.325,1.2,105.3,-34.8,27.2,3079,2.481,0
518528,-4.688,7.135,-2.861,-1.041,0.055,-0.737,1.2,105.3,-34.8,27.3,3187,2.568,0
518582,-8.023,5.399,-0.994,-0.308,-0.443,-0.623,1.2,105.3,-34.8,27.4,3167,2.552,0
518636,-7.08,6.076,-0.898,0.072,-0.054,-0.643,17.4,105.15,-29.55,27.4,3037,2.447,0
518690,-10.59,1.343,1.286,-0.282,1.297,1.305,17.4,105.15,-29.55,27.5,3002,2.419,0
518744,-7.424,5.72,-1.525,1.685,0.039,0.904,17.4,105.15,-29.55,27.6,2549,2.054,0
518798,-4.18,4.915,-3.354,0.475,1.203,2.122,17.4,105.15,-29.55,27.4,1833,1.477,0
518852,-4.223,7.01,-4.096,0.959,0.891,1.94,-5.55,103.95,-40.2,27.2,1800,1.451,0
518906,-1.774,6.335,-4.305,0.44,1.933,2.549,-5.55,103.95,-40.2,27.2,624,0.503,0
518960,-0.905,5.241,-4.422,1.366,0.742,2.115,-28.8,97.2,-43.95,27.5,178,0.143,0
519014,3.955,9.675,-6.191,0.432,1.514,1.672,-28.8,97.2,-43.95,27.2,179,0.144,0
519068,0.591,4.942,-6.414,1.982,0.273,0.914,-51.0,85.35,-42.75,27.5,159,0.128,0
519122,1.544,4.317,-6.1,-0.423,1.832,3.528,-51.0,85.35,-42.75,27.2,106,0.085,0
519176,5.947,9.335,-8.768,1.007,0.883,0.448,-69.45,64.35,-31.95,27.4,149,0.12,0
519230,0.12,1.535,-5.071,1.393,0.349,1.006,-74.1,47.55,-17.1,27.3,164,0.132,0
519284,10.992,13.604,-10.106,-1.399,2.073,2.175,-74.1,47.55,-17.1,27.5,986,0.795,0
519338,3.055,0.34,-4.357,0.758,-0.64,0.632,-77.4,34.35,-5.4,27.2,1128,0.909,0
519392,8.712,9.414,-7.089,1.37,0.072,-0.031,-77.4,34.35,-5.4,27.1,1033,0.832,0
519446,4.152,0.393,-5.818,0.838,-0.141,0.702,-77.4,34.35,-5.4,27.4,153,0.123,0
519500,7.144,6.591,-6.46,0.244,0.487,1.293,-77.4,34.35,-5.4,27.2,151,0.122,0
519554,7.226,2.526,-4.949,0.256,0.661,1.232,-80.55,21.45,-4.2,27.4,156,0.126,0
519608,9.012,2.801,-6.249,1.729,-0.313,-0.16,-80.55,21.45,-4.2,27.4,169,0.136,0
519662,6.12,0.345,-4.966,-0.661,1.247,2.101,-80.55,21.45,-4.2,27.2,159,0.128,0
519716,10.561,4.061,-5.717,1.246,0.008,0.399,-80.55,21.45,-4.2,27.5,151,0.122,0
519770,8.459,1.817,-7.362,1.043,0.013,-0.028,-80.4,6.9,2.55,27.3,143,0.115,0
519824,5.713,2.512,-5.375,-1.28,0.887,1.261,-79.65,0.3,9.0,27.0,153,0.123,0
519878,9.522,-2.334,-4.305,1.551,0.379,0.399,-79.65,0.3,9.0,27.4,173,0.139,0
519932,9.558,0.342,-5.423,0.73,0.298,0.704,-76.35,-8.1,12.0,27.3,147,0.118,0
519986,8.617,0.321,-6.002,0.711,0.376,0.179,-76.35,-8.1,12.0,27.6,159,0.128,0
520040,9.661,0.802,-6.167,-0.262,0.405,0.512,-72.15,-10.05,17.85,27.5,142,0.114,0
520094,8.918,0.436,-6.74,0.438,-0.237,-0.459,-72.15,-10.05,17.85,27.5,137,0.11,0
520148,10.312,1.889,-8.389,-0.365,-0.332,-0.545,-72.15,-10.05,17.85,27.2,159,0.128,0
520202,10.836,1.286,-7.245,-1.026,-0.961,-1.073,-72.15,-10.05,17.85,27.4,125,0.101,0
520256,10.822,2.033,-8.028,-0.924,-1.389,-1.972,-76.95,-4.8,10.05,27.5,172,0.139,0
520310,8.533,0.73,-6.201,-1.329,-1.592,-1.791,-76.95,-4.8,10.05,27.1,136,0.11,0
520364,8.899,2.88,-7.479,-0.685,-1.795,-2.459,-76.95,-4.8,10.05,27.4,148,0.119,0
520418,7.441,4.614,-7.496,-2.075,-0.917,-1.425,-82.05,29.55,-15.45,27.4,243,0.196,0
520472,7.3,3.711,-6.12,-1.423,-1.128,-2.008,-82.05,29.55,-15.45,27.5,699,0.563,0
520526,3.519,3.474,-4.286,-0.97,-1.166,-1.655,-78.9,42.45,-22.95,27.4,1823,1.469,0
520580,5.126,7.47,-6.718,-1.013,-1.188,-1.609,-78.9,42.45,-22.95,27.3,1541,1.242,0
520634,2.878,5.128,-5.734,-1.337,-0.784,-1.646,-73.5,58.95,-36.3,27.6,1670,1.346,0
520688,1.834,6.862,-4.606,-1.104,-0.89,-1.483,-73.5,58.95,-36.3,27.2,552,0.445,0
520742,-0.129,7.638,-4.762,-0.173,-0.933,-1.844,-61.35,78.0,-42.75,27.2,2231,1.798,0
520796,-0.414,7.259,-4.748,-0.912,-0.602,-1.248,-61.35,78.0,-42.75,27.2,2599,2.094,0
520850,-2.804,6.883,-3.773,-0.3,-0.731,-1.296,-45.0,88.8,-46.05,27.4,2528,2.037,0
520904,-0.893,8.715,-4.511,-0.462,-0.641,-1.302,-45.0,88.8,-46.05,27.3,2675,2.156,0
520958,-4.034,6.108,-3.069,-0.143,-0.674,-1.314,-28.5,99.15,-47.7,27.2,2720,2.192,0
521012,-3.44,8.284,-4.041,0.073,-0.86,-1.269,-28.5,99.15,-47.7,27.2,2869,2.312,0
521066,-3.613,7.829,-3.982,-0.827,-0.383,-0.995,-28.5,99.15,-47.7,27.5,3031,2.443,0
521120,-5.021,6.742,-2.993,-0.013,-0.577,-1.109,-3.45,102.6,-42.45,27.6,3121,2.515,0
521174,-4.324,6.577,-3.486,-0.077,-0.874,-1.247,-3.45,102.6,-42.45,27.4,3159,2.546,0
521228,-7.47,4.812,-0.177,-0.033,0.021,-0.651,8.85,102.45,-42.3,27.2,2999,2.417,0
521282,-8.806,4.271,-0.074,-0.026,0.374,0.159,8.85,102.45,-42.3,27.2,2952,2.379,0
521336,-10.068,3.598,-1.094,1.061,0.287,0.607,10.05,103.2,-42.75,27.5,2813,2.267,0
521390,-4.899,6.56,-2.842,0.657,1.061,1.228,10.05,103.2,-42.75,27.4,2540,2.047,0
521444,-5.756,3.948,-2.588,0.569,1.196,1.873,-0.3,101.25,-49.35,27.2,2279,1.837,0
521498,-1.276,6.725,-4.829,1.211,1.412,1.392,-0.3,101.25,-49.35,27.2,925,0.745,0
521552,-3.163,4.664,-3.699,-0.528,2.207,3.101,-20.1,97.05,-54.45,27.4,223,0.18,0
521606,2.212,7.53,-4.918,1.904,1.056,1.496,-43.95,87.75,-49.65,27.3,191,0.154,0
521660,1.027,4.645,-5.871,0.685,1.698,2.725,-43.95,87.75,-49.65,27.2,211,0.17,0
521714,5.93,7.168,-8.459,1.702,1.13,1.119,-64.8,67.65,-46.8,27.2,220,0.177,0
521768,-0.115,5.303,-6.364,0.825,1.546,2.211,-64.8,67.65,-46.8,27.0,208,0.168,0
521822,8.811,7.975,-9.333,0.372,1.755,1.691,-72.15,52.5,-32.85,27.3,1372,1.106,0
521876,2.246,3.388,-7.731,0.758,1.018,1.05,-72.15,52.5,-32.85,27.5,921,0.742,0
521930,7.707,4.053,-7.642,0.9,1.992,1.863,-72.15,52.5,-32.85,27.5,224,0.181,0
521984,5.231,4.602,-7.271,0.794,0.861,0.672,-72.15,52.5,-32.85,27.4,425,0.342,0
522038,7.216,2.682,-6.488,-0.291,1.176,1.704,-79.65,32.85,-10.95,27.2,176,0.142,0
522092,8.72,1.796,-6.586,0.719,0.722,0.837,-79.65,32.85,-10.95,27.5,177,0.143,0
522146,8.349,2.107,-6.117,0.159,1.009,1.323,-82.65,17.7,-2.1,27.2,167,0.135,0
522200,8.183,0.479,-4.374,0.128,0.776,1.173,-81.3,8.25,7.8,27.1,154,0.124,0
522254,10.048,0.754,-6.297,0.726,0.419,0.713,-81.3,8.25,7.8,27.2,135,0.109,0
522308,8.935,1.432,-6.232,0.176,0.646,0.847,-76.35,-1.8,13.05,27.4,115,0.093,0
522362,8.945,0.12,-4.92,0.243,0.444,0.524,-76.35,-1.8,13.05,27.4,175,0.141,0
522416,8.492,-0.302,-5.205,0.521,0.25,0.232,-73.35,-7.2,18.9,27.4,122,0.098,0
522470,9.78,0.029,-5.061,0.038,0.32,0.58,-73.35,-7.2,18.9,27.4,166,0.134,0
522524,9.313,1.623,-5.478,0.183,0.218,0.192,-70.95,-10.2,21.3,27.2,139,0.112,0
522578,9.349,-0.972,-5.428,0.015,0.013,0.033,-70.95,-10.2,21.3,27.3,143,0.115,0
522632,11.169,3.012,-7.937,-0.183,-0.819,-1.039,-70.95,-10.2,21.3,27.4,147,0.118,0
522686,8.583,1.305,-6.67,-1.385,-0.864,-1.379,-70.95,-10.2,21.3,27.1,159,0.128,0
522740,8.25,-0.189,-5.416,-0.713,-1.484,-1.569,-76.2,-4.35,14.7,27.5,118,0.095,0
522794,8.784,3.601,-6.828,-0.682,-1.313,-1.547,-76.2,-4.35,14.7,27.2,156,0.126,0
522848,8.866,3.007,-7.422,-0.847,-1.555,-2.373,-76.2,-4.35,14.7,27.3,137,0.11,0
522902,7.025,2.191,-6.383,-1.542,-1.292,-1.359,-81.75,27.15,-8.55,27.2,136,0.11,0
522956,8.011,6.084,-6.821,-0.967,-1.467,-2.147,-81.75,27.15,-8.55,27.3,159,0.128,0
523010,4.764,3.594,-6.871,-1.273,-1.265,-2.038,-77.55,42.3,-19.8,27.2,981,0.791,0
523064,5.648,4.389,-5.289,-0.981,-1.116,-1.756,-77.55,42.3,-19.8,27.4,2041,1.645,0
523118,2.478,5.303,-4.879,-0.769,-1.144,-1.59,-74.4,57.6,-33.15,27.4,1739,1.401,0
523172,3.752,7.104,-5.583,-0.78,-0.984,-1.635,-74.4,57.6,-33.15,26.9,920,0.741,0
523226,-0.089,5.911,-5.171,-0.526,-0.863,-1.578,-63.15,77.85,-44.4,27.2,1151,0.928,0
523280,1.824,7.077,-5.303,-0.977,-1.025,-1.688,-63.15,77.85,-44.4,27.4,2371,1.911,0
523334,-1.257,7.434,-4.685,-0.341,-1.111,-1.739,-47.85,89.85,-48.3,27.4,2442,1.968,0
523388,-1.595,7.147,-3.618,-0.859,-0.614,-1.172,-31.35,97.5,-48.0,27.3,2485,2.003,0
523442,-3.804,8.071,-4.223,-0.145,-0.444,-1.36,-31.35,97.5,-48.0,27.4,2605,2.099,0
523496,-3.33,6.953,-2.928,-0.593,-0.461,-1.154,-31.35,97.5,-48.0,27.3,2887,2.327,0
523550,-4.207,7.259,-3.704,-0.2,-0.779,-1.231,-31.35,97.5,-48.0,27.2,3002,2.419,0
523604,-5.023,7.18,-2.521,-0.335,-0.565,-0.986,-3.3,103.5,-43.5,27.1,3239,2.61,0
523658,-6.388,5.787,-2.746,0.236,-0.605,-1.105,-3.3,103.5,-43.5,26.9,3239,2.61,0
523712,-5.037,7.439,-3.005,-1.085,0.275,0.115,-3.3,103.5,-43.5,27.5,3204,2.582,0
523766,-9.177,2.48,1.116,0.715,-0.514,-0.286,-3.3,103.5,-43.5,27.4,3199,2.578,0
523820,-6.831,6.124,-1.547,1.009,0.412,0.267,9.0,103.35,-41.1,27.5,3095,2.494,0
523874,-8.217,3.103,-2.241,0.027,1.288,1.682,9.0,103.35,-41.1,27.2,2741,2.209,0
523928,-3.639,6.613,-3.646,0.806,1.224,1.429,0.0,103.5,-48.15,27.2,2233,1.799,0
523982,-3.768,5.418,-3.637,0.182,1.579,2.104,0.0,103.5,-48.15,27.4,1207,0.973,0
524036,0.122,7.654,-5.926,0.799,0.957,1.325,-18.6,99.0,-51.15,27.4,113,0.091,0
524090,-2.605,5.729,-4.13,-0.054,1.581,2.662,-40.8,92.1,-47.25,27.1,147,0.118,0
524144,2.684,9.278,-6.352,2.042,0.864,0.952,-40.8,92.1,-47.25,27.2,112,0.09,0
524198,0.84,2.327,-4.503,0.111,1.073,2.69,-60.45,75.6,-44.4,27.2,156,0.126,0
524252,5.413,11.478,-7.537,1.792,1.31,0.675,-60.45,75.6,-44.4,27.3,144,0.116,0
524306,0.577,0.783,-6.055,1.149,0.146,1.254,-72.0,57.3,-30.15,27.4,122,0.098,0
524360,6.426,11.909,-7.578,-0.965,1.779,2.899,-72.0,57.3,-30.15,27.2,1175,0.947,0
524414,6.402,2.246,-8.112,1.906,0.414,0.084,-72.0,57.3,-30.15,27.1,247,0.199,0
524468,5.986,4.717,-7.07,-0.768,1.355,2.328,-72.0,57.3,-30.15,27.4,165,0.133,0
524522,7.621,6.139,-7.848,0.934,0.528,0.544,-79.35,34.35,-13.5,27.2,161,0.13,0
524576,6.486,2.725,-7.137,0.102,0.854,1.078,-79.35,34.35,-13.5,27.2,157,0.127,0
524630,7.151,4.154,-6.189,0.109,0.469,0.739,-79.35,34.35,-13.5,27.0,800,0.645,0
524684,6.517,2.184,-5.662,0.33,0.42,0.785,-81.3,20.25,-2.25,27.2,151,0.122,0
524738,7.475,2.828,-5.289,0.527,0.648,0.869,-81.3,20.25,-2.25,27.4,139,0.112,0
524792,4.664,0.536,-3.144,0.124,0.586,1.671,-81.0,10.2,3.75,27.2,141,0.114,0
524846,10.973,1.719,-6.615,1.97,0.527,0.305,-81.0,10.2,3.75,27.2,148,0.119,0
524900,8.983,1.132,-6.606,0.412,0.583,0.808,-80.1,2.7,6.45,27.4,167,0.135,0
524954,9.242,1.221,-5.674,-0.379,1.017,1.043,-80.1,2.7,6.45,27.2,175,0.141,0
525008,8.291,-0.445,-4.604,0.355,0.32,0.363,-76.5,-5.85,13.95,27.4,170,0.137,0
525062,9.184,0.204,-5.59,0.751,0.406,0.477,-76.5,-5.85,13.95,27.1,168,0.135,0
525116,9.558,0.915,-6.179,0.03,0.463,0.556,-73.5,-9.0,19.5,26.9,138,0.111,0
525170,9.517,1.621,-6.263,0.116,-0.317,-0.337,-73.5,-9.0,19.5,27.2,150,0.121,0
525224,12.198,3.481,-8.521,-0.902,-0.728,-1.128,-72.45,-10.2,19.5,27.2,180,0.145,0
525278,9.902,0.699,-6.196,-1.342,-0.695,-0.901,-72.45,-10.2,19.5,27.4,162,0.131,0
525332,11.363,3.01,-8.399,-0.288,-1.837,-2.266,-72.45,-10.2,19.5,27.6,140,0.113,0
525386,8.581,0.85,-6.79,-1.84,-1.241,-1.555,-81.15,10.35,0.0,27.5,142,0.114,0
525440,8.308,2.102,-5.224,-0.913,-1.744,-1.86,-81.15,10.35,0.0,27.2,160,0.129,0
525494,8.478,4.858,-7.171,-0.848,-1.67,-2.196,-81.15,10.35,0.0,27.3,159,0.128,0
525548,5.957,1.982,-4.944,-0.786,-1.311,-1.232,-81.15,10.35,0.0,26.9,517,0.417,0
525602,6.4,6.563,-6.292,-1.427,-1.202,-1.226,-76.5,43.8,-26.4,27.4,1706,1.375,0
525656,3.704,4.312,-5.698,-0.335,-1.415,-1.995,-76.5,43.8,-26.4,27.4,2211,1.782,0
525710,2.219,6.261,-6.287,-1.297,-0.9,-1.575,-70.2,59.25,-41.1,27.2,1824,1.47,0
525764,0.134,3.91,-4.788,-0.705,-0.904,-1.292,-70.2,59.25,-41.1,27.0,1181,0.952,0
525818,0.594,8.071,-5.997,-0.497,-0.794,-1.406,-58.5,78.0,-48.15,27.3,1720,1.386,0
525872,-1.293,4.877,-4.501,-1.212,-0.615,-0.968,-43.65,88.35,-52.35,27.2,2355,1.898,0
525926,-1.032,8.959,-4.657,-0.732,-0.564,-1.2,-43.65,88.35,-52.35,27.2,2600,2.095,0
525980,-3.531,6.534,-3.658,-0.532,-0.278,-0.98,-30.6,96.75,-49.8,27.2,2823,2.275,0
526034,-1.65,7.384,-4.005,-0.494,-0.556,-1.075,-30.6,96.75,-49.8,27.1,2967,2.391,0
526088,-5.119,7.298,-3.912,0.035,-0.124,-1.121,-17.25,100.35,-46.5,27.3,3031,2.443,0
526142,-3.23,6.881,-3.259,-0.716,-0.148,-0.751,-17.25,100.35,-46.5,27.2,3110,2.506,0
526196,-4.894,6.675,-4.391,0.011,-0.712,-1.427,-17.25,100.35,-46.5,27.4,3057,2.464,0
526250,-3.448,6.481,-2.842,-0.578,-0.166,-0.504,-17.25,100.35,-46.5,27.2,3131,2.523,0
526304,-9.002,4.867,-1.535,0.744,-0.364,-0.742,1.2,103.35,-43.65,27.2,3163,2.549,0
526358,-6.867,4.594,-2.392,-0.481,0.521,0.478,1.2,103.35,-43.65,27.2,3195,2.575,0
526412,-10.005,3.338,-1.851,0.877,-0.089,0.668,1.2,103.35,-43.65,27.4,3091,2.491,0
526466,-3.56,8.444,-3.84,0.448,0.98,1.574,-3.6,102.45,-49.65,27.1,2889,2.328,0
526520,-5.533,2.634,-3.179,0.723,1.102,2.1,-3.6,102.45,-49.65,27.2,2205,1.777,0
526574,0.105,8.42,-5.667,1.033,1.073,1.672,-22.8,96.75,-55.35,27.1,544,0.438,0
526628,-4.669,2.691,-5.176,0.742,1.434,2.896,-22.8,96.75,-55.35,27.2,199,0.16,0
526682,4.329,9.225,-5.282,-0.026,2.16,2.887,-44.85,85.95,-56.4,27.4,158,0.127,0
526736,5.016,7.633,-8.653,1.661,1.104,0.464,-44.85,85.95,-56.4,27.1,137,0.11,0
526790,-0.596,-0.266,-4.575,-0.739,1.511,3.525,-66.6,67.2,-40.5,27.2,162,0.131,0
526844,9.857,10.499,-8.365,0.345,1.908,2.38,-66.6,67.2,-40.5,27.4,1589,1.281,0
526898,-0.271,-1.374,-4.314,1.378,0.207,1.483,-66.6,67.2,-40.5,27.2,662,0.533,0
526952,8.303,11.657,-7.417,-1.406,2.378,3.464,-66.6,67.2,-40.5,26.9,135,0.109,0
527006,7.061,1.056,-6.749,1.954,0.547,0.196,-78.3,37.65,-15.15,26.8,168,0.135,0
527060,5.509,3.191,-6.273,-0.003,1.428,2.329,-78.3,37.65,-15.15,27.3,151,0.122,0
527114,10.441,3.972,-6.902,1.171,1.132,1.01,-78.3,37.65,-15.15,27.2,155,0.125,0
527168,8.052,0.984,-6.16,0.395,1.019,1.473,-80.1,7.65,6.15,27.4,155,0.125,0
527222,7.049,0.445,-4.032,0.527,0.793,1.578,-80.1,7.65,6.15,27.1,169,0.136,0
527276,10.008,1.506,-6.675,1.853,0.503,0.657,-74.85,-3.0,15.6,27.2,149,0.12,0
527330,10.345,-0.431,-4.707,-3.775,0.503,6.09,-74.85,-3.0,15.6,27.2,175,0.141,0
527384,9.026,0.512,-4.738,-2.177,0.99,0.096,-70.95,-17.85,15.9,27.0,171,0.138,0
527438,8.88,-6.512,-7.07,5.167,-0.914,-3.076,-70.95,-17.85,15.9,27.0,171,0.138,0
527492,12.163,15.649,-8.054,-1.316,-1.266,-0.845,-74.1,-13.8,17.1,27.2,169,0.136,0
527546,8.159,-2.55,-7.128,0.078,-1.473,-2.844,-74.1,-13.8,17.1,27.2,164,0.132,0
527600,9.634,2.2,-6.972,-1.103,-1.259,-1.363,-78.75,-2.4,10.05,27.4,175,0.141,0
527654,11.463,4.685,-8.334,-1.165,-1.639,-2.227,-81.9,17.4,-5.4,27.6,167,0.135,0
527708,8.121,2.466,-6.812,-1.492,-1.477,-2.351,-81.9,17.4,-5.4,27.2,160,0.129,0
527762,6.342,2.581,-5.157,-0.958,-1.796,-2.287,-81.9,17.4,-5.4,27.1,567,0.457,0
527816,4.999,5.44,-6.165,-1.217,-1.369,-1.802,-81.9,17.4,-5.4,27.2,1312,1.057,0
527870,3.716,4.64,-5.581,-0.75,-1.342,-1.93,-76.5,51.6,-30.75,27.3,2279,1.837,0
527924,3.225,6.225,-5.557,-1.151,-1.111,-1.806,-76.5,51.6,-30.75,27.2,1691,1.363,0
527978,0.898,6.062,-4.494,-0.933,-0.948,-1.516,-76.5,51.6,-30.75,27.1,1229,0.99,0
528032,0.263,6.5,-4.12,-0.87,-0.914,-1.364,-76.5,51.6,-30.75,27.4,1259,1.015,0
528086,-0.788,7.353,-4.389,-0.482,-0.866,-1.427,-51.0,89.25,-49.65,27.2,1417,1.142,0
528140,-1.219,7.405,-4.899,-0.427,-0.859,-1.696,-51.0,89.25,-49.65,27.3,2253,1.816,0
528194,-2.102,6.67,-3.699,-0.861,-0.698,-1.284,-32.1,97.2,-49.8,27.4,2416,1.947,0
528248,-3.282,7.772,-2.828,-0.162,-0.74,-1.57,-13.5,102.6,-47.7,27.3,2784,2.244,0
528302,-4.896,6.194,-3.347,-0.368,-0.276,-1.289,-13.5,102.6,-47.7,27.3,3035,2.446,0
528356,-6.373,5.823,-3.263,-0.467,-0.122,-0.728,-3.3,105.15,-45.3,27.4,3032,2.443,0
528410,-4.525,7.051,-2.152,-1.417,0.24,0.037,-3.3,105.15,-45.3,27.0,3129,2.522,0
528464,-8.183,3.929,0.534,0.63,0.014,-0.345,1.95,105.75,-37.8,27.4,3185,2.567,0
528518,-8.77,4.362,-0.979,0.503,0.642,0.895,1.95,105.75,-37.8,27.4,3062,2.468,0
528572,-5.49,4.915,-2.014,0.763,1.001,1.465,-2.4,104.1,-41.1,27.2,2735,2.204,0
528626,-5.265,3.419,-0.941,0.573,0.843,2.617,-2.4,104.1,-41.1,27.4,1583,1.276,0
528680,3.273,11.277,-7.377,2.263,0.658,0.557,-2.4,104.1,-41.1,27.2,117,0.094,0
528734,-5.229,2.787,-4.563,-0.847,2.508,4.119,-2.4,104.1,-41.1,27.2,144,0.116,0
528788,5.641,9.282,-6.682,1.467,1.115,1.326,-49.05,87.75,-45.3,27.0,160,0.129,0
528842,-1.846,4.717,-4.353,0.589,1.201,2.341,-71.25,65.85,-36.6,27.0,145,0.117,0
528896,7.915,10.123,-10.149,1.504,1.139,0.91,-71.25,65.85,-36.6,26.9,416,0.335,0
528950,3.397,2.025,-7.511,1.246,0.692,0.719,-76.2,46.2,-20.25,27.5,767,0.618,0
529004,8.112,8.562,-6.596,-0.955,1.311,2.403,-76.2,46.2,-20.25,27.3,185,0.149,0
529058,3.292,3.079,-5.859,2.193,0.04,0.173,-75.9,37.8,-10.5,27.1,1139,0.918,0
529112,6.845,4.76,-6.414,-0.787,1.596,2.81,-75.9,37.8,-10.5,27.2,1013,0.816,0
529166,7.7,4.527,-7.369,2.182,0.128,-0.087,-78.6,28.2,-7.95,27.2,381,0.307,0
529220,6.29,3.63,-7.209,-0.617,0.988,1.961,-78.6,28.2,-7.95,27.2,148,0.119,0
529274,7.025,4.408,-6.091,1.225,0.228,0.427,-80.1,19.65,-3.6,27.3,166,0.134,0
529328,6.785,2.318,-6.519,0.345,0.528,0.844,-80.1,19.65,-3.6,26.8,152,0.122,0
529382,7.975,2.157,-5.088,0.191,0.717,1.211,-80.1,19.65,-3.6,27.1,159,0.128,0
529436,8.03,-0.862,-3.728,1.593,0.26,0.669,-80.4,4.2,4.65,27.1,170,0.137,0
529490,8.095,0.091,-5.298,1.351,0.556,1.39,-80.4,4.2,4.65,27.2,175,0.141,0
529544,10.494,0.369,-5.08,-0.176,1.085,2.04,-80.4,4.2,4.65,27.2,165,0.133,0
529598,8.013,1.657,-6.649,1.559,0.264,0.211,-80.4,4.2,4.65,27.2,161,0.13,0
529652,9.467,-4.254,-5.464,-0.576,-0.38,0.456,-73.2,-8.7,14.7,27.3,159,0.128,0
529706,9.278,7.223,-7.764,-1.719,-0.212,0.51,-73.2,-8.7,14.7,27.2,160,0.129,0
529760,10.252,2.198,-9.471,0.323,-1.513,-2.407,-75.45,-4.35,9.6,27.2,155,0.125,0
529814,9.275,1.348,-8.696,-2.19,-1.163,-1.102,-75.45,-4.35,9.6,26.9,153,0.123,0
529868,7.74,1.805,-6.998,-0.853,-1.706,-1.962,-80.25,9.45,-1.95,27.2,175,0.141,0
529922,7.221,1.678,-6.876,-1.318,-1.54,-1.46,-80.25,9.45,-1.95,27.4,151,0.122,0
529976,6.601,3.682,-6.62,-1.092,-1.504,-1.601,-79.35,27.45,-16.05,27.2,153,0.123,0
530030,5.547,2.942,-6.206,-0.802,-1.529,-1.898,-79.35,27.45,-16.05,27.2,151,0.122,0
530084,5.167,5.152,-7.015,-1.081,-1.264,-1.414,-76.2,41.55,-25.35,27.2,1436,1.157,0
530138,4.085,4.714,-6.792,-1.034,-1.266,-1.644,-71.85,54.9,-40.5,27.2,2145,1.729,0
530192,3.261,6.048,-6.323,-1.095,-0.951,-1.579,-71.85,54.9,-40.5,27.1,1279,1.031,0
530246,1.137,5.679,-6.019,-1.548,-0.798,-1.42,-71.85,54.9,-40.5,27.2,1439,1.16,0
530300,-0.783,5.672,-5.102,-0.414,-1.168,-1.984,-71.85,54.9,-40.5,27.0,1535,1.237,0
530354,-1.293,7.128,-4.934,-1.5,-0.606,-0.867,-40.8,91.8,-56.1,27.0,2360,1.902,0
530408,-1.788,6.694,-3.917,-0.387,-1.002,-1.933,-40.8,91.8,-56.1,27.2,2663,2.146,0
530462,-4.293,6.572,-3.812,-0.938,-0.084,-0.971,-24.3,99.9,-51.6,27.2,2880,2.321,0
530516,-2.567,6.766,-3.472,-1.205,-0.206,-0.912,-24.3,99.9,-51.6,27.4,2969,2.393,0
530570,-3.335,9.371,-5.607,-0.43,-0.714,-1.841,-12.15,102.75,-42.0,27.2,3035,2.446,0
530624,-4.709,6.141,-3.213,-2.039,0.069,-0.658,-12.15,102.75,-42.0,27.0,2989,2.409,0
530678,-7.046,5.145,1.001,-1.089,0.31,-0.56,1.05,106.65,-33.9,27.2,3177,2.56,0
530732,-9.558,2.873,0.11,1.242,-0.885,-1.09,8.1,107.4,-24.0,27.4,3079,2.481,0
530786,-8.37,5.373,-0.95,-0.124,0.802,1.118,8.1,107.4,-24.0,27.2,3051,2.459,0
530840,-6.833,4.544,-1.824,1.348,-0.086,0.424,4.2,107.25,-31.95,26.9,2863,2.307,0
530894,-5.071,5.768,-1.808,0.356,1.046,2.212,4.2,107.25,-31.95,27.1,2304,1.857,0
530948,-2.907,7.178,-2.241,0.673,0.665,2.106,4.2,107.25,-31.95,27.2,800,0.645,0
531002,-2.509,8.279,-5.432,1.719,0.911,1.3,4.2,107.25,-31.95,27.4,120,0.097,0
531056,-2.478,5.207,-3.819,0.42,1.045,2.596,-28.2,97.8,-47.4,27.0,149,0.12,0
531110,3.615,10.965,-7.611,1.206,1.147,1.144,-28.2,97.8,-47.4,27.2,160,0.129,0
531164,-3.428,2.284,-1.808,-0.069,1.267,3.137,-28.2,97.8,-47.4,27.2,165,0.133,0
531218,5.258,5.77,-8.95,4.234,-0.745,0.863,-28.2,97.8,-47.4,27.3,201,0.162,0
531272,2.464,4.594,-5.904,-0.459,2.53,3.921,-68.85,64.5,-41.55,27.0,1851,1.492,0
531326,-0.124,-1.068,-5.71,4.094,-0.563,-0.375,-74.25,44.55,-30.15,27.4,170,0.137,0
531380,10.568,10.489,-9.902,-1.544,3.168,4.345,-74.25,44.55,-30.15,27.2,183,0.147,0
531434,3.891,-1.185,-5.789,2.865,0.459,-0.104,-80.25,31.05,-21.3,27.1,187,0.151,0
531488,9.601,2.066,-7.563,0.111,1.758,2.747,-80.25,31.05,-21.3,27.3,180,0.145,0
531542,8.016,1.812,-6.273,0.862,1.292,1.46,-82.5,11.7,-8.55,27.2,152,0.122,0
531596,9.055,-2.409,-6.895,1.013,1.606,2.131,-82.5,11.7,-8.55,27.0,176,0.142,0
531650,11.533,0.974,-9.098,1.623,0.594,0.609,-82.5,11.7,-8.55,27.3,186,0.15,0
531704,9.747,-0.024,-8.284,-0.483,0.895,1.237,-82.5,11.7,-8.55,27.0,169,0.136,0
531758,9.613,1.089,-9.012,0.135,0.042,-0.204,-73.95,-10.2,13.65,26.8,188,0.152,0
531812,9.201,1.29,-9.335,-0.332,-0.713,-0.835,-73.95,-10.2,13.65,27.3,192,0.155,0
531866,10.539,1.925,-10.022,-0.929,-1.117,-1.224,-73.95,-10.2,13.65,27.2,171,0.138,0
531920,9.328,0.383,-8.375,-1.752,-1.204,-1.317,-81.3,0.9,1.5,27.3,183,0.147,0
531974,10.549,0.905,-8.856,-1.077,-1.83,-2.131,-81.3,0.9,1.5,27.2,177,0.143,0
532028,9.469,1.805,-7.879,-2.635,-1.176,-1.553,-82.8,20.25,-15.45,27.2,159,0.128,0
532082,6.979,2.167,-6.515,-1.672,-1.714,-2.231,-82.8,20.25,-15.45,27.1,163,0.131,0
532136,5.047,3.033,-6.132,-1.281,-1.703,-2.005,-78.3,38.85,-25.35,27.2,672,0.542,0
532190,4.106,4.187,-6.574,-0.947,-1.589,-1.887,-78.3,38.85,-25.35,27.2,1645,1.326,0
532244,5.337,4.64,-6.093,-1.136,-1.495,-1.8,-73.95,53.85,-41.1,26.8,2270,1.829,0
532298,-0.373,5.713,-6.706,-0.247,-1.814,-2.554,-73.95,53.85,-41.1,26.9,1213,0.978,0
532352,-0.991,5.253,-4.942,-2.229,-0.096,-0.581,-59.7,75.15,-58.2,27.2,1284,1.035,0
532406,1.539,8.124,-5.847,-0.491,-1.333,-2.516,-59.7,75.15,-58.2,27.1,1615,1.301,0
532460,-4.216,4.767,-4.063,-0.998,-0.572,-1.104,-39.6,90.6,-58.2,27.3,2463,1.985,0
532514,-1.226,8.329,-5.246,-0.525,-1.155,-1.514,-39.6,90.6,-58.2,27.3,2627,2.117,0
532568,-3.498,6.294,-3.519,-1.231,-0.41,-1.249,-39.6,90.6,-58.2,27.1,2896,2.334,0
532622,-4.192,7.247,-4.037,-0.598,-0.579,-1.812,-7.2,103.05,-47.7,27.0,3001,2.418,0
532676,-4.266,5.286,-2.413,-1.448,0.328,-0.802,-7.2,103.05,-47.7,26.8,3171,2.555,0
532730,-8.811,2.837,-0.385,0.288,-0.43,-1.191,-7.2,103.05,-47.7,27.0,3217,2.592,0
532784,-7.812,5.37,0.412,-0.258,0.449,0.518,-7.2,103.05,-47.7,27.2,3112,2.508,0
532838,-7.456,3.627,-0.95,1.489,0.052,0.194,7.2,104.85,-38.1,27.2,3048,2.456,0
532892,-5.504,6.187,-1.918,0.06,1.508,2.055,7.2,104.85,-38.1,27.2,2815,2.268,0
532946,-4.997,3.881,-2.193,1.879,0.515,1.621,-4.65,102.6,-45.75,27.1,1661,1.339,0
533000,-0.721,7.051,-5.605,1.569,1.101,1.548,-4.65,102.6,-45.75,27.2,115,0.093,0
533054,-2.545,3.924,-5.794,0.732,1.547,2.553,-24.0,96.0,-56.4,27.1,147,0.118,0
533108,5.059,9.201,-6.735,0.765,1.533,1.289,-46.35,84.0,-56.1,27.1,163,0.131,0
533162,0.857,5.701,-7.017,1.233,1.008,1.067,-46.35,84.0,-56.1,27.0,608,0.49,0
533216,2.981,6.249,-7.259,-0.603,2.266,2.592,-68.55,67.2,-39.0,26.8,156,0.126,0
533270,3.558,4.245,-4.52,1.064,0.812,1.951,-68.55,67.2,-39.0,27.2,973,0.784,0
533324,6.938,7.214,-8.689,1.199,0.984,1.343,-73.5,49.2,-24.9,27.0,172,0.139,0
533378,2.789,2.727,-6.232,0.761,0.841,1.963,-73.5,49.2,-24.9,27.2,167,0.135,0
533432,9.359,8.411,-8.188,-0.801,1.567,2.575,-73.5,49.2,-24.9,27.2,148,0.119,0
533486,4.657,-0.153,-4.786,1.46,0.0,0.978,-73.5,49.2,-24.9,27.1,168,0.135,0
533540,8.404,4.841,-7.432,-0.32,1.207,2.514,-79.8,27.9,-12.6,27.5,165,0.133,0
533594,7.374,2.389,-5.552,1.388,0.436,0.718,-79.8,27.9,-12.6,27.2,184,0.148,0
533648,6.864,0.01,-4.99,0.427,0.969,1.625,-79.8,27.9,-12.6,26.8,185,0.149,0
533702,10.475,-0.333,-6.778,1.999,0.295,0.582,-81.0,-0.15,3.0,27.2,175,0.141,0
533756,7.666,-0.122,-6.572,0.06,1.25,1.719,-81.0,-0.15,3.0,27.2,166,0.134,0
533810,9.802,-0.034,-6.701,0.875,0.696,0.707,-75.6,-8.85,11.25,27.0,147,0.118,0
533864,7.142,-2.181,-11.93,-1.702,2.137,4.005,-75.6,-8.85,11.25,27.0,175,0.141,0
533918,8.619,-1.142,-5.411,-0.557,0.194,0.061,-70.5,-15.15,18.45,27.0,149,0.12,0
533972,9.433,2.574,-11.135,1.421,-2.41,-3.81,-70.5,-15.15,18.45,27.1,171,0.138,0
534026,10.795,0.177,-9.857,-1.237,-1.28,-1.625,-75.45,-6.3,11.85,27.3,162,0.131,0
534080,11.212,2.337,-7.889,-2.315,-1.086,-1.187,-75.45,-6.3,11.85,27.2,168,0.135,0
534134,8.428,3.189,-7.647,-1.004,-2.033,-2.622,-75.45,-6.3,11.85,27.2,167,0.135,0
534188,8.835,2.928,-7.606,-1.384,-1.847,-2.414,-75.45,-6.3,11.85,27.3,174,0.14,0
534242,5.813,2.911,-6.443,-1.401,-1.729,-2.226,-81.0,29.85,-17.7,27.3,181,0.146,0
534296,7.633,4.053,-7.36,-1.35,-1.364,-2.617,-81.0,29.85,-17.7,27.1,1819,1.466,0
534350,2.294,2.765,-5.437,-1.519,-1.296,-1.92,-81.0,29.85,-17.7,27.2,2348,1.892,0
534404,4.654,6.242,-5.72,-1.921,-1.046,-1.848,-67.05,70.35,-46.8,27.2,1277,1.029,0
534458,0.247,5.586,-4.879,-0.607,-1.443,-2.447,-67.05,70.35,-46.8,27.3,1251,1.008,0
534512,0.778,7.077,-4.365,-1.748,-0.479,-1.086,-44.1,91.05,-50.55,27.2,1508,1.215,0
534566,-1.611,5.768,-3.23,-0.732,-0.894,-1.731,-44.1,91.05,-50.55,26.9,2395,1.93,0
534620,-2.653,6.582,-2.95,-0.897,-0.472,-1.405,-24.75,102.15,-45.45,26.9,2521,2.032,0
534674,-4.587,6.768,-2.739,-0.823,-0.399,-1.262,-24.75,102.15,-45.45,27.2,2975,2.397,0
534728,-3.201,8.255,-2.066,-1.257,-0.208,-0.787,-10.8,105.15,-39.0,27.4,3031,2.443,0
534782,-5.485,7.855,-2.653,0.08,-0.724,-1.779,-10.8,105.15,-39.0,27.2,3067,2.472,0
534836,-6.586,5.521,-1.618,-1.04,0.002,-0.532,2.55,108.6,-33.6,27.2,3159,2.546,0
534890,-5.636,7.475,-1.666,-1.133,0.049,-0.519,12.0,106.8,-26.4,27.0,3223,2.597,0
534944,-5.887,7.24,-1.267,-0.475,-0.071,-0.957,12.0,106.8,-26.4,27.1,3239,2.61,0
534998,-6.553,5.801,-1.925,-0.629,-0.05,-0.913,12.0,106.8,-26.4,26.9,3287,2.649,0
535052,-9.1,4.848,0.608,-0.531,0.039,-0.226,12.0,106.8,-26.4,27.0,3494,2.816,0
535106,-7.834,6.335,-0.036,0.578,-0.122,-0.912,24.9,102.45,-16.8,27.0,3539,2.852,0
535160,-10.7,2.873,0.225,0.07,0.44,0.826,24.9,102.45,-16.8,26.9,3576,2.882,0
535214,-7.125,6.218,-1.403,0.857,0.254,0.74,21.15,104.4,-18.15,27.2,3211,2.588,0
535268,-6.11,4.884,-1.927,0.792,0.489,1.515,21.15,104.4,-18.15,27.0,2943,2.372,0
535322,-4.879,6.653,-1.276,0.912,0.625,2.341,10.8,107.85,-25.2,27.1,2009,1.619,0
535376,-3.522,5.957,-2.708,2.098,0.016,1.476,10.8,107.85,-25.2,27.4,1013,0.816,0
535430,-1.3,8.32,-4.666,0.33,1.527,2.38,-4.95,105.75,-38.55,27.2,507,0.409,0
535484,-3.084,4.164,-5.136,1.8,0.106,1.614,-4.95,105.75,-38.55,27.2,181,0.146,0
535538,-0.785,7.614,-4.262,-0.01,1.904,3.416,-28.65,101.25,-44.55,27.0,157,0.127,0
535592,3.84,10.518,-8.332,2.06,0.153,0.386,-48.6,87.15,-49.05,26.9,171,0.138,0
535646,-5.732,1.824,-3.201,-0.582,2.314,4.0,-48.6,87.15,-49.05,27.2,146,0.118,0
535700,10.736,11.583,-8.784,2.276,-0.017,0.589,-48.6,87.15,-49.05,27.1,169,0.136,0
535754,-4.937,-0.575,-2.947,-0.834,1.621,4.259,-48.6,87.15,-49.05,27.2,1919,1.546,0
535808,11.906,7.087,-8.171,2.249,0.539,0.767,-77.55,41.55,-20.55,27.1,875,0.705,0
535862,2.306,3.922,-5.636,-0.267,1.596,3.195,-77.55,41.55,-20.55,27.0,165,0.133,0
535916,9.682,4.621,-5.519,1.658,0.979,1.604,-77.55,41.55,-20.55,27.2,179,0.144,0
535970,6.421,2.169,-6.472,0.796,1.109,2.118,-77.55,41.55,-20.55,27.2,149,0.12,0
536024,8.657,2.239,-5.516,1.21,1.325,1.862,-84.0,12.9,-6.0,27.0,174,0.14,0
536078,10.594,-0.204,-5.404,0.649,1.187,2.011,-84.0,12.9,-6.0,27.0,171,0.138,0
536132,10.305,1.544,-6.534,1.577,0.674,1.121,-78.6,-6.45,6.15,27.4,167,0.135,0
536186,11.437,-0.268,-7.669,1.393,0.281,0.631,-72.0,-15.9,14.4,27.2,183,0.147,0
536240,10.937,1.168,-8.215,-0.041,0.928,1.099,-72.0,-15.9,14.4,27.0,167,0.135,0
536294,11.03,3.385,-9.268,-0.148,-0.204,-0.622,-70.05,-21.6,21.9,26.9,153,0.123,0
536348,12.936,2.911,-9.922,-0.757,-0.977,-1.715,-70.05,-21.6,21.9,27.0,176,0.142,0
536402,11.171,0.97,-7.827,-2.053,-0.967,-1.668,-73.65,-11.1,12.3,27.2,168,0.135,0
536456,9.893,1.417,-8.241,-1.046,-2.316,-3.075,-73.65,-11.1,12.3,27.2,176,0.142,0
536510,8.911,1.111,-6.697,-0.962,-2.07,-2.578,-83.1,7.65,-1.35,27.0,168,0.135,0
536564,9.313,3.17,-7.013,-1.748,-1.893,-2.391,-83.1,7.65,-1.35,27.0,247,0.199,0
536618,5.016,2.933,-6.598,-1.178,-1.996,-2.784,-83.1,7.65,-1.35,27.0,1381,1.113,0
536672,3.63,2.713,-4.956,-1.482,-1.413,-1.736,-83.1,7.65,-1.35,27.1,1696,1.367,0
536726,3.833,6.974,-5.674,-0.927,-1.53,-2.123,-77.1,51.0,-37.2,27.1,1865,1.503,0
536780,1.355,5.069,-5.437,-1.262,-1.022,-1.693,-77.1,51.0,-37.2,27.1,1605,1.293,0
536834,0.249,5.643,-4.475,-1.276,-0.956,-1.613,-77.1,51.0,-37.2,27.2,1524,1.228,0
536888,-0.74,6.709,-4.393,-0.88,-1.073,-1.685,-41.7,93.15,-53.25,27.3,1800,1.451,0
536942,-0.972,8.078,-4.278,-1.241,-0.631,-1.396,-41.7,93.15,-53.25,27.0,2339,1.885,0
536996,-0.702,7.975,-4.001,-1.103,-0.722,-1.848,-23.55,104.1,-47.7,26.8,2589,2.086,0
537050,-4.992,5.813,-1.568,-1.411,-0.073,-1.102,-23.55,104.1,-47.7,27.0,2903,2.339,0
537104,-4.362,6.914,-1.216,-0.416,-0.878,-1.732,-9.45,107.25,-35.25,27.2,3062,2.468,0
537158,-4.748,7.374,-1.106,-0.548,-0.293,-1.172,-9.45,107.25,-35.25,27.2,3049,2.457,0
537212,-5.212,7.57,-2.265,-0.215,-0.491,-1.629,6.75,106.5,-32.25,27.4,3112,2.508,0
537266,-7.515,4.776,-0.603,-0.573,-0.034,-0.709,6.75,106.5,-32.25,27.1,3205,2.583,0
537320,-7.118,5.435,-0.522,-0.161,-0.077,-0.714,17.1,105.9,-25.95,27.2,3303,2.662,0
537374,-7.281,4.348,0.496,-0.336,0.066,-0.207,23.25,104.55,-22.05,27.2,3389,2.731,0
537428,-9.881,2.16,1.714,0.404,0.292,0.391,23.25,104.55,-22.05,26.7,3283,2.646,0
537482,-10.113,5.308,0.041,0.997,0.534,0.926,23.25,104.55,-22.05,27.0,2941,2.37,0
537536,-4.877,3.57,-1.3,0.506,1.33,1.908,23.25,104.55,-22.05,27.1,1965,1.584,0
537590,-4.654,4.721,-1.346,0.771,1.062,2.56,4.2,106.8,-31.95,27.2,141,0.114,0
537644,-1.247,8.648,-4.616,1.7,1.123,1.82,4.2,106.8,-31.95,27.2,123,0.099,0
537698,-0.702,6.73,-5.835,0.986,1.128,2.235,-18.0,104.85,-42.45,27.0,145,0.117,0
537752,-1.379,7.597,-3.1,0.035,1.472,3.61,-18.0,104.85,-42.45,27.2,138,0.111,0
537806,3.326,8.947,-6.132,1.047,1.506,1.962,-46.95,91.2,-42.3,27.2,182,0.147,0
537860,-1.635,1.362,-3.584,1.026,0.768,2.848,-46.95,91.2,-42.3,27.0,127,0.102,0
537914,8.734,10.872,-9.203,1.527,1.347,1.267,-72.15,65.7,-33.15,27.0,1509,1.216,0
537968,0.232,0.148,-5.392,0.569,1.642,2.989,-76.5,37.95,-16.5,26.8,184,0.148,0
538022,11.94,7.891,-7.432,0.483,1.98,2.589,-76.5,37.95,-16.5,27.0,165,0.133,0
538076,8.641,2.878,-6.038,0.648,1.188,1.743,-79.8,28.35,-4.2,27.2,128,0.103,0
538130,8.545,4.336,-6.591,0.359,1.249,2.131,-79.8,28.35,-4.2,27.2,152,0.122,0
538184,9.122,2.559,-5.619,0.795,0.721,1.467,-79.8,28.35,-4.2,27.0,179,0.144,0
538238,8.217,0.579,-5.212,0.851,0.818,1.652,-79.8,28.35,-4.2,27.0,155,0.125,0
538292,10.602,1.872,-5.945,0.715,0.488,1.29,-77.4,-6.15,12.3,27.0,159,0.128,0
538346,9.428,0.014,-5.26,0.1,0.411,1.176,-77.4,-6.15,12.3,27.2,133,0.107,0
538400,10.005,0.266,-4.875,0.272,0.446,0.789,-77.4,-6.15,12.3,27.0,159,0.128,0
538454,8.763,-0.532,-5.737,1.221,-0.067,0.234,-77.4,-6.15,12.3,26.9,171,0.138,0
538508,11.813,3.136,-7.918,-0.453,0.395,0.446,-67.8,-22.8,21.15,27.1,167,0.135,0
538562,12.85,3.5,-7.879,-0.447,-0.57,-1.578,-69.45,-18.3,20.25,27.1,133,0.107,0
538616,10.058,0.874,-7.089,-0.917,-1.139,-2.223,-69.45,-18.3,20.25,27.0,169,0.136,0
538670,10.678,2.059,-6.335,-1.76,-0.796,-1.822,-79.35,-3.75,10.2,27.2,177,0.143,0
538724,10.602,3.232,-7.207,-0.334,-1.856,-3.213,-79.35,-3.75,10.2,27.0,159,0.128,0
538778,7.961,2.167,-6.371,-0.961,-1.603,-2.721,-81.75,21.0,-4.5,27.2,141,0.114,0
538832,8.957,3.318,-5.409,-1.21,-1.86,-2.537,-81.75,21.0,-4.5,27.3,669,0.539,0
538886,4.59,4.42,-6.084,-0.319,-1.786,-2.85,-81.75,21.0,-4.5,26.9,807,0.65,0
538940,4.19,4.724,-5.614,-1.001,-1.566,-2.193,-81.75,21.0,-4.5,26.8,2327,1.875,0
538994,1.116,4.518,-4.647,-1.017,-1.239,-1.759,-73.65,63.3,-40.95,27.3,1815,1.463,0
539048,1.781,5.966,-5.217,-0.488,-1.209,-1.998,-73.65,63.3,-40.95,27.0,777,0.626,0
539102,0.302,6.716,-5.332,-1.45,-0.598,-1.163,-73.65,63.3,-40.95,27.2,1035,0.834,0
539156,-0.402,7.207,-4.81,-0.476,-1.038,-1.934,-33.45,97.8,-51.9,27.4,1160,0.935,0
539210,-2.531,6.108,-3.804,-1.307,-0.445,-1.135,-33.45,97.8,-51.9,27.0,2080,1.676,0
539264,-1.094,7.484,-3.352,-1.331,-0.569,-0.954,-16.5,103.35,-44.7,27.2,2219,1.788,0
539318,-4.551,6.27,-2.478,-0.204,-1.018,-1.551,-16.5,103.35,-44.7,27.0,2312,1.863,0
539372,-5.124,7.635,-3.158,-0.461,-0.613,-1.255,-2.55,106.65,-40.2,26.8,2656,2.14,0
539426,-4.8,7.017,-2.035,-1.126,-0.109,-1.004,-2.55,106.65,-40.2,27.2,3067,2.472,0
539480,-6.39,4.975,-0.649,-0.278,-0.409,-0.977,9.6,107.4,-33.9,27.1,3132,2.524,0
539534,-6.773,7.209,-2.301,0.167,0.304,-1.068,9.6,107.4,-33.9,27.2,3222,2.596,0
539588,-8.88,2.413,-0.826,-1.036,-0.131,-0.094,20.25,103.8,-32.7,27.0,3297,2.657,0
539642,-9.021,5.219,0.735,0.135,0.176,0.104,20.25,103.8,-32.7,27.2,3241,2.612,0
539696,-11.583,2.188,0.682,0.77,0.773,0.807,21.15,103.2,-32.4,27.1,2931,2.362,0
539750,-6.05,3.994,-1.607,0.856,0.961,1.754,21.15,103.2,-32.4,27.2,2753,2.219,0
539804,-5.598,4.329,-2.157,0.925,1.244,2.26,21.15,103.2,-32.4,27.1,2124,1.712,0
539858,-1.037,6.28,-4.436,0.748,0.999,1.878,-9.0,104.85,-45.75,27.2,229,0.185,0
539912,-4.219,6.416,-3.625,0.648,1.29,2.511,-9.0,104.85,-45.75,27.0,175,0.141,0
539966,4.226,4.853,-2.988,1.517,0.93,1.849,-34.8,97.5,-47.25,27.2,174,0.14,0
540020,-1.669,9.898,-7.149,0.013,2.595,3.221,-34.8,97.5,-47.25,27.2,228,0.184,0
540074,9.153,4.616,-11.413,3.175,-0.876,-0.602,-66.0,73.95,-38.85,27.1,169,0.136,0
540128,-1.154,2.947,-5.935,-3.131,2.96,5.469,-66.0,73.95,-38.85,27.0,1536,1.238,0
540182,9.562,11.564,-8.346,4.313,-0.38,-0.804,-76.95,47.7,-21.75,27.0,167,0.135,0
540236,2.059,-2.207,-5.93,-0.891,1.521,3.573,-76.95,47.7,-21.75,27.2,178,0.143,0
540290,7.841,6.737,-6.953,1.011,1.092,1.41,-75.45,33.75,-12.9,26.9,185,0.149,0
540344,7.513,1.331,-7.106,0.367,1.078,1.762,-80.1,22.8,-5.1,26.8,160,0.129,0
540398,7.568,1.834,-4.515,1.164,0.57,1.534,-80.1,22.8,-5.1,26.9,157,0.127,0
540452,8.468,1.76,-6.68,0.869,0.7,1.712,-80.1,22.8,-5.1,26.9,160,0.129,0
540506,9.979,3.036,-7.377,0.374,0.735,1.315,-80.1,22.8,-5.1,27.0,157,0.127,0
540560,7.408,-0.625,-4.97,0.237,0.707,1.42,-77.85,-4.95,7.95,27.1,163,0.131,0
540614,9.754,2.993,-8.157,0.311,0.462,0.57,-77.85,-4.95,7.95,27.2,165,0.133,0
540668,9.234,-0.318,-5.229,-0.51,0.611,0.722,-77.85,-4.95,7.95,27.2,157,0.127,0
540722,9.208,2.909,-7.422,0.701,-0.271,-0.553,-77.85,-4.95,7.95,27.1,160,0.129,0
540776,13.613,4.413,-8.99,-0.688,-0.674,-1.427,-72.45,-13.2,15.9,26.8,171,0.138,0
540830,10.482,1.326,-7.24,-1.469,-0.74,-1.622,-72.45,-13.2,15.9,26.8,139,0.112,0
540884,11.092,1.741,-7.76,-1.283,-1.375,-2.16,-77.55,-4.8,9.3,27.0,139,0.112,0
540938,9.675,3.151,-7.592,-1.375,-1.435,-2.43,-77.55,-4.8,9.3,27.0,164,0.132,0
540992,6.687,1.358,-6.627,-0.307,-2.329,-3.12,-81.3,18.3,-4.5,27.2,145,0.117,0
541046,10.288,6.524,-7.46,-2.283,-1.143,-1.546,-77.1,38.25,-19.35,27.1,268,0.216,0
541100,4.106,2.71,-6.112,0.008,-2.316,-3.676,-77.1,38.25,-19.35,27.0,735,0.592,0
541154,4.003,4.978,-5.21,-1.879,-1.018,-1.556,-77.1,38.25,-19.35,27.1,1959,1.579,0
541208,1.573,6.33,-5.782,-0.587,-1.53,-2.612,-77.1,38.25,-19.35,27.2,293,0.236,0
541262,1.154,4.882,-4.245,-1.462,-0.619,-1.444,-54.9,85.65,-51.3,26.8,837,0.675,0
541316,-0.575,6.347,-4.286,0.048,-1.703,-2.494,-54.9,85.65,-51.3,26.9,1115,0.899,0
541370,-1.077,7.46,-4.271,-1.907,-0.194,-1.186,-54.9,85.65,-51.3,27.0,1901,1.532,0
541424,-3.304,6.12,-2.945,-0.477,-0.998,-2.098,-54.9,85.65,-51.3,27.2,2491,2.007,0
541478,-2.349,7.582,-3.249,-0.395,-0.561,-1.802,-12.0,106.5,-42.45,27.1,2728,2.198,0
541532,-6.244,5.423,-2.813,-0.565,-0.379,-1.791,-12.0,106.5,-42.45,27.0,2927,2.359,0
541586,-3.656,7.824,-3.577,-0.527,-0.461,-1.727,3.3,107.4,-39.75,27.1,3055,2.462,0
541640,-6.998,4.954,-2.181,-0.876,0.258,-1.216,15.6,105.45,-32.4,27.0,3131,2.523,0
541694,-5.222,5.626,-2.358,-0.326,-0.16,-1.513,15.6,105.45,-32.4,27.0,2781,2.241,0
541748,-9.175,3.795,-0.443,-1.134,0.564,-0.067,26.25,103.05,-24.9,27.2,2663,2.146,0
541802,-10.637,3.39,0.139,0.751,0.08,-0.428,26.25,103.05,-24.9,27.0,3032,2.443,0
541856,-10.506,2.796,-1.547,0.442,0.262,0.687,26.55,103.05,-24.6,27.1,4095,3.3,0
541910,-8.449,4.827,-1.556,0.163,0.732,1.87,26.55,103.05,-24.6,27.0,1815,1.463,0
541964,-5.567,3.548,-0.369,0.616,0.772,2.324,16.5,106.8,-28.2,27.0,1523,1.227,0
542018,-2.543,5.521,-3.443,1.743,0.442,2.066,16.5,106.8,-28.2,27.2,603,0.486,0
542072,-0.462,6.977,-4.322,0.142,1.392,2.849,16.5,106.8,-28.2,27.2,186,0.15,0
542126,-1.635,7.161,-4.731,0.974,1.221,2.582,16.5,106.8,-28.2,27.0,137,0.11,0
542180,6.383,8.631,-5.99,0.868,0.557,1.516,-34.95,100.05,-38.7,27.0,149,0.12,0
542234,-1.137,6.503,-3.012,-0.075,1.268,3.303,-34.95,100.05,-38.7,27.0,160,0.129,0
542288,8.179,10.484,-7.69,0.826,1.334,2.168,-34.95,100.05,-38.7,27.2,1024,0.825,0
542342,-1.499,-0.026,-6.024,1.538,-0.151,1.68,-76.5,55.35,-21.3,27.2,1135,0.915,0
542396,9.831,13.618,-7.321,-1.81,1.771,4.25,-76.5,55.35,-21.3,27.1,176,0.142,0
542450,2.602,-1.52,-5.851,2.829,-0.551,0.193,-77.55,38.85,-12.15,27.2,160,0.129,0
542504,8.873,8.509,-7.738,-1.39,2.025,3.609,-77.55,38.85,-12.15,27.2,181,0.146,0
542558,6.457,1.707,-4.219,1.644,0.73,0.926,-80.25,30.3,-10.05,26.9,148,0.119,0
542612,10.64,3.134,-6.737,0.696,1.232,1.922,-80.25,30.3,-10.05,27.0,155,0.125,0
542666,7.132,1.99,-5.205,0.654,1.203,1.905,-82.35,16.95,-4.35,26.8,144,0.116,0
542720,10.142,0.754,-5.878,1.421,0.984,1.178,-82.35,16.95,-4.35,26.8,165,0.133,0
542774,10.477,0.263,-6.376,1.021,0.582,1.283,-81.3,1.35,7.05,27.2,183,0.147,0
542828,10.534,2.456,-7.396,0.785,0.461,0.669,-74.7,-9.45,14.4,26.9,165,0.133,0
542882,9.878,0.982,-6.132,-0.3,0.824,1.053,-74.7,-9.45,14.4,27.1,165,0.133,0
542936,10.259,1.729,-7.822,0.684,-0.067,-0.404,-74.7,-9.45,14.4,27.2,175,0.141,0
542990,9.831,2.816,-8.353,-0.851,-0.182,-0.241,-74.7,-9.45,14.4,27.0,152,0.122,0
543044,12.189,3.622,-9.254,-0.957,-1.15,-2.093,-73.5,-8.25,15.15,27.2,158,0.127,0
543098,10.609,0.769,-7.882,-1.802,-1.27,-2.05,-73.5,-8.25,15.15,26.9,128,0.103,0
543152,11.289,1.822,-7.578,-1.095,-1.975,-2.623,-73.5,-8.25,15.15,26.9,160,0.129,0
543206,8.564,2.749,-6.941,-1.284,-1.826,-2.235,-73.5,-8.25,15.15,26.9,151,0.122,0
543260,7.846,4.757,-6.713,-1.783,-1.492,-2.343,-79.65,33.15,-14.55,27.0,541,0.436,0
543314,5.16,2.717,-5.521,-1.212,-1.911,-2.771,-79.65,33.15,-14.55,27.0,903,0.728,0
543368,3.177,5.557,-5.442,-1.305,-1.233,-2.14,-77.25,50.4,-28.95,27.0,2091,1.685,0
543422,1.647,5.478,-5.059,-1.67,-0.878,-1.959,-63.9,79.05,-46.2,27.1,331,0.267,0
543476,-0.742,5.334,-3.225,-1.083,-0.651,-1.866,-63.9,79.05,-46.2,27.0,1103,0.889,0
543530,0.716,6.934,-4.446,-0.645,-1.1,-2.124,-37.95,98.55,-45.6,27.2,1472,1.186,0
543584,-2.523,5.89,-2.734,-1.116,-0.455,-1.381,-37.95,98.55,-45.6,27.2,2025,1.632,0
543638,-2.267,7.992,-2.289,-1.11,-0.664,-1.442,-16.5,104.55,-41.85,27.0,2359,1.901,0
543692,-4.31,6.261,-1.568,-0.356,-0.706,-1.875,-16.5,104.55,-41.85,26.9,2717,2.19,0
543746,-4.506,7.86,-3.443,-0.422,-0.63,-1.901,1.8,107.1,-37.65,27.1,2952,2.379,0
543800,-4.992,5.334,-1.712,-1.402,0.222,-1.255,1.8,107.1,-37.65,27.2,3064,2.469,0
543854,-6.536,4.647,-1.623,-0.505,-0.452,-1.2,1.8,107.1,-37.65,27.0,2935,2.365,0
543908,-8.696,4.52,-0.464,0.27,0.198,-0.64,1.8,107.1,-37.65,27.1,2491,2.007,0
543962,-9.574,3.498,-1.176,-0.416,-0.031,-0.313,27.3,103.8,-26.85,27.1,3031,2.443,0
544016,-12.323,2.461,0.098,0.126,0.376,0.838,27.45,103.2,-25.95,27.2,2991,2.41,0
544070,-6.244,5.693,-1.192,1.026,0.299,0.701,27.45,103.2,-25.95,27.0,2056,1.657,0
544124,-8.365,3.484,-0.845,0.323,0.876,2.392,16.65,106.2,-29.85,27.0,1597,1.287,0
544178,-2.883,4.743,-2.164,1.331,0.748,1.905,16.65,106.2,-29.85,27.0,2068,1.667,0
544232,-4.015,6.879,-3.462,0.124,1.328,2.921,-3.6,108.15,-39.75,27.1,104,0.084,0
544286,1.408,7.604,-5.219,0.866,1.478,2.475,-3.6,108.15,-39.75,27.2,252,0.203,0
544340,-2.088,3.46,-3.601,0.847,0.63,2.62,-33.45,100.5,-39.75,27.0,128,0.103,0
544394,3.677,11.186,-5.614,0.384,1.842,2.699,-33.45,100.5,-39.75,27.0,119,0.096,0
544448,3.448,4.108,-5.806,1.321,0.111,1.563,-58.65,83.7,-39.6,27.0,160,0.129,0
544502,3.555,10.391,-6.804,0.565,1.85,2.273,-58.65,83.7,-39.6,27.0,1535,1.237,0
544556,1.822,-1.202,-3.443,0.856,0.914,3.155,-58.65,83.7,-39.6,27.2,152,0.122,0
544610,10.968,12.093,-9.038,0.367,1.721,2.354,-76.2,46.95,-18.75,26.9,159,0.128,0
544664,4.367,0.294,-4.47,0.692,0.947,1.869,-76.2,46.95,-18.75,26.8,160,0.129,0
544718,9.962,3.74,-6.847,-0.044,1.381,2.498,-76.2,46.95,-18.75,27.2,145,0.117,0
544772,7.228,1.451,-5.839,1.179,1.022,1.374,-76.2,46.95,-18.75,27.1,183,0.147,0
544826,9.108,0.905,-5.432,0.786,1.153,1.866,-80.25,11.4,4.5,26.8,159,0.128,0
544880,9.91,1.908,-7.424,1.018,0.663,0.971,-80.25,11.4,4.5,27.2,159,0.128,0
544934,9.974,1.932,-6.483,-0.663,0.785,1.434,-75.75,-4.8,12.15,26.9,147,0.118,0
544988,9.244,-0.115,-4.69,0.483,0.468,0.496,-75.75,-4.8,12.15,27.2,151,0.122,0
545042,9.457,1.128,-6.907,0.761,-0.028,0.225,-70.95,-14.85,18.45,27.2,157,0.127,0
545096,11.456,4.015,-8.744,-0.506,-0.137,-0.646,-70.95,-14.85,18.45,26.8,151,0.122,0
545150,11.43,2.552,-6.689,-0.95,-0.68,-1.289,-71.1,-14.55,19.35,27.0,141,0.114,0
545204,10.987,3.249,-7.125,-0.925,-1.121,-2.066,-71.1,-14.55,19.35,27.2,154,0.124,0
545258,11.399,3.4,-7.807,-1.384,-1.337,-2.252,-71.1,-14.55,19.35,27.2,160,0.129,0
545312,10.228,4.281,-6.483,-1.134,-1.642,-2.908,-81.9,18.45,-1.05,27.0,154,0.124,0
545366,7.199,2.859,-5.978,-0.851,-1.968,-2.926,-81.9,18.45,-1.05,27.0,159,0.128,0
545420,8.064,5.839,-5.713,-1.303,-1.565,-2.529,-81.9,18.45,-1.05,27.0,825,0.665,0
545474,3.984,3.23,-5.009,-0.295,-1.976,-2.921,-81.9,18.45,-1.05,27.2,1331,1.073,0
545528,5.076,6.665,-5.071,-1.828,-0.7,-1.555,-71.85,65.7,-35.7,27.0,1712,1.38,0
545582,2.828,5.437,-3.96,-0.763,-1.148,-2.366,-71.85,65.7,-35.7,26.8,160,0.129,0
545636,-0.417,5.938,-3.158,-0.884,-0.689,-1.553,-49.5,90.45,-46.35,27.0,918,0.74,0
545690,0.773,8.023,-5.89,-0.116,-1.268,-2.723,-49.5,90.45,-46.35,26.9,1712,1.38,0
545744,-4.405,3.06,-1.956,-1.01,-0.47,-0.998,-24.15,102.0,-48.6,27.1,2251,1.814,0
545798,-2.54,8.504,-3.084,0.436,-1.486,-2.223,-3.45,106.05,-43.95,27.2,2609,2.102,0
545852,-4.597,5.564,-2.399,-1.109,-0.536,-1.181,-3.45,106.05,-43.95,27.2,2742,2.21,0
545906,-5.739,6.155,-3.065,0.591,-1.069,-1.923,9.75,106.05,-39.6,27.1,2966,2.39,0
545960,-4.93,5.538,-3.084,-1.173,-0.264,-0.886,9.75,106.05,-39.6,27.0,3031,2.443,0
546014,-7.52,5.717,-1.183,-0.322,-0.538,-1.037,21.3,105.75,-35.25,26.8,3013,2.428,0
546068,-6.981,4.161,-0.886,0.063,-0.431,-0.899,21.3,105.75,-35.25,26.9,2803,2.259,0
546122,-10.654,4.101,-0.615,-0.148,0.237,-0.08,21.3,105.75,-35.25,26.9,2607,2.101,0
546176,-11.437,0.812,-0.077,0.516,0.202,0.508,21.3,105.75,-35.25,27.2,2531,2.04,0
546230,-8.215,5.284,-0.881,0.182,1.048,1.725,26.4,103.5,-35.4,26.9,1835,1.479,0
546284,-6.618,4.743,-3.263,1.274,0.604,1.398,26.4,103.5,-35.4,26.9,1736,1.399,0
546338,-4.073,5.734,-3.498,0.263,1.393,2.382,12.0,104.85,-43.95,27.0,1261,1.016,0
546392,-1.628,5.351,-4.405,1.34,0.511,1.704,12.0,104.85,-43.95,27.3,50,0.04,0
546446,0.206,7.489,-7.065,0.865,1.099,1.843,-11.7,103.35,-50.25,27.1,167,0.135,0
546500,-1.769,4.571,-4.12,0.075,1.734,2.836,-35.7,95.1,-53.7,26.9,151,0.122,0
546554,3.311,10.798,-8.48,1.33,1.098,1.164,-35.7,95.1,-53.7,26.8,160,0.129,0
546608,-3.086,0.96,-4.041,0.412,1.383,3.122,-59.55,79.95,-43.05,27.1,136,0.11,0
546662,5.95,11.03,-7.13,0.785,1.418,1.439,-59.55,79.95,-43.05,27.0,1380,1.112,0
546716,0.881,-0.402,-4.673,2.278,0.354,1.2,-76.5,57.75,-31.95,27.0,763,0.615,0
546770,9.165,10.556,-7.312,-1.313,2.341,3.765,-76.5,57.75,-31.95,27.2,182,0.147,0
546824,5.61,1.966,-5.88,2.014,0.686,0.611,-76.5,57.75,-31.95,27.2,133,0.107,0
546878,8.174,4.604,-6.215,-0.33,1.961,2.911,-76.5,57.75,-31.95,27.2,137,0.11,0
546932,8.332,3.675,-6.378,1.716,0.414,0.633,-81.15,28.95,-7.65,27.0,152,0.122,0
546986,7.647,3.043,-6.981,0.408,1.041,1.563,-81.15,28.95,-7.65,26.9,181,0.146,0
547040,9.158,0.725,-4.417,0.343,0.695,1.379,-82.5,17.85,-0.9,26.8,157,0.127,0
547094,9.433,1.109,-5.681,1.149,0.644,1.098,-80.85,1.8,8.7,27.2,160,0.129,0
547148,10.173,0.795,-6.27,0.528,0.702,0.984,-80.85,1.8,8.7,26.9,147,0.118,0
547202,9.562,2.444,-6.045,0.031,0.743,0.762,-74.4,-8.1,16.05,26.9,165,0.133,0
547256,10.01,1.482,-7.106,0.711,0.269,0.3,-74.4,-8.1,16.05,27.1,139,0.112,0
547310,11.392,3.761,-7.444,-0.392,0.017,-0.259,-71.85,-11.55,21.15,27.2,167,0.135,0
547364,10.891,2.468,-7.901,-0.333,-0.772,-1.618,-71.85,-11.55,21.15,27.1,133,0.107,0
547418,10.29,2.179,-7.532,-1.054,-0.952,-1.636,-74.25,-7.05,16.2,27.1,139,0.112,0
547472,10.087,3.031,-6.883,-1.483,-1.248,-1.73,-74.25,-7.05,16.2,26.6,167,0.135,0
547526,10.23,3.91,-6.828,-1.435,-1.514,-2.292,-74.25,-7.05,16.2,27.1,153,0.123,0
547580,8.868,4.18,-7.216,-1.74,-1.371,-2.729,-74.25,-7.05,16.2,27.1,155,0.125,0
547634,6.754,3.247,-4.942,-1.786,-1.027,-2.354,-80.1,32.4,-7.2,27.1,576,0.464,0
547688,6.297,3.778,-3.486,-1.377,-1.189,-2.226,-80.25,50.4,-16.2,27.0,809,0.652,0
547742,4.233,6.972,-4.417,-0.527,-1.268,-2.43,-80.25,50.4,-16.2,27.2,2121,1.709,0
547796,2.801,5.14,-4.185,-1.024,-0.912,-2.021,-72.15,77.25,-32.85,26.8,225,0.181,0
547850,0.508,7.594,-3.642,-0.592,-1.082,-1.917,-72.15,77.25,-32.85,27.0,149,0.12,0
547904,-0.204,7.305,-3.436,-0.14,-1.126,-2.197,-47.1,96.0,-40.65,27.0,141,0.114,0
547958,-2.093,6.503,-4.408,-0.419,-0.817,-1.652,-47.1,96.0,-40.65,26.8,1349,1.087,0
548012,-2.354,6.843,-3.876,-0.884,-0.523,-1.83,-25.05,103.35,-42.9,27.0,2284,1.841,0
548066,-4.604,4.827,-1.599,-0.522,-0.129,-0.935,-25.05,103.35,-42.9,27.2,2483,2.001,0
548120,0.074,9.282,-3.273,0.166,-0.846,-1.594,-9.6,107.1,-34.65,27.2,2683,2.162,0
548174,-6.905,5.964,-2.004,-0.551,0.144,-0.942,-9.6,107.1,-34.65,26.9,2723,2.194,0
548228,-2.784,8.147,-4.254,-0.478,-0.673,-2.041,-9.6,107.1,-34.65,27.0,2931,2.362,0
548282,-9.213,2.14,-0.055,-1.12,-0.039,-0.456,18.9,106.2,-28.05,27.2,2984,2.405,0
548336,-10.046,4.223,-1.051,0.991,-0.193,-1.078,18.9,106.2,-28.05,27.2,3104,2.501,0
548390,-9.943,2.387,-0.12,-0.694,0.691,0.841,18.9,106.2,-28.05,26.8,3004,2.421,0
548444,-8.344,4.14,-0.278,0.903,0.249,0.469,18.9,106.2,-28.05,27.1,2764,2.227,0
548498,-6.0,4.29,-2.729,0.512,0.646,1.458,18.15,105.15,-35.1,27.2,2188,1.763,0
548552,-5.799,5.346,-3.163,0.749,0.956,2.241,18.15,105.15,-35.1,27.0,1824,1.47,0
548606,0.06,6.359,-4.264,0.802,0.983,2.009,-0.3,106.65,-41.25,26.8,981,0.791,0
548660,-3.297,7.178,-3.795,0.211,1.665,2.669,-0.3,106.65,-41.25,27.2,219,0.176,0
548714,0.67,5.868,-5.538,1.711,0.896,1.54,-25.5,103.8,-43.2,27.0,168,0.135,0
548768,0.206,7.168,-5.191,-0.162,1.753,3.324,-25.5,103.8,-43.2,26.9,173,0.139,0
548822,4.034,7.168,-7.755,2.304,0.274,0.746,-50.85,89.4,-41.4,27.2,167,0.135,0
548876,0.718,5.449,-5.701,-0.355,1.721,3.266,-50.85,89.4,-41.4,27.1,235,0.189,0
548930,7.92,7.855,-9.706,2.379,-0.345,-0.361,-50.85,89.4,-41.4,26.8,1049,0.845,0
548984,0.278,1.743,-4.745,-0.86,1.588,3.38,-77.55,46.2,-16.2,27.2,151,0.122,0
549038,10.384,10.254,-6.879,1.994,0.63,0.528,-77.55,46.2,-16.2,27.0,144,0.116,0
549092,5.176,0.486,-4.808,0.813,0.897,1.783,-77.55,46.2,-16.2,26.9,169,0.136,0
549146,8.89,4.152,-6.266,0.302,1.158,2.278,-77.55,46.2,-16.2,27.0,164,0.132,0
549200,8.325,3.539,-4.803,0.329,1.247,1.671,-81.9,21.9,-2.1,27.1,155,0.125,0
549254,7.743,-0.103,-3.776,1.256,0.711,1.21,-81.9,21.9,-2.1,26.9,159,0.128,0
549308,10.341,2.866,-6.16,0.32,1.235,1.88,-80.4,4.5,9.45,27.0,151,0.122,0
549362,11.308,1.006,-5.502,1.097,0.479,0.801,-80.4,4.5,9.45,27.0,160,0.129,0
549416,9.55,2.658,-7.973,0.84,0.101,-0.004,-74.4,-8.85,17.1,26.7,147,0.118,0
549470,11.583,3.431,-8.607,-0.733,0.266,0.152,-73.2,-8.25,21.0,26.9,157,0.127,0
549524,9.898,2.423,-7.104,-0.293,-0.649,-0.904,-73.2,-8.25,21.0,27.2,171,0.138,0
549578,11.111,4.647,-8.349,-1.253,-0.75,-1.288,-73.2,-8.25,21.0,27.1,175,0.141,0
549632,10.465,2.701,-6.472,-1.444,-1.087,-1.814,-73.2,-8.25,21.0,27.2,147,0.118,0
549686,9.768,2.667,-6.426,-0.832,-1.752,-2.436,-81.6,13.05,2.85,27.0,163,0.131,0
549740,8.832,3.421,-5.679,-1.805,-1.297,-1.707,-81.6,13.05,2.85,27.2,155,0.125,0
549794,9.773,5.981,-6.246,-0.446,-1.959,-3.416,-76.5,33.75,-6.75,26.9,265,0.214,0
549848,5.009,3.45,-5.811,-1.018,-1.527,-2.468,-76.5,33.75,-6.75,26.8,128,0.103,0
549902,5.926,7.386,-5.258,-1.659,-1.255,-2.248,-78.3,52.35,-23.1,26.8,2096,1.689,0
549956,2.84,4.367,-4.123,-0.532,-1.454,-2.629,-78.3,52.35,-23.1,26.8,351,0.283,0
550010,1.47,7.096,-5.198,-0.847,-1.219,-2.388,-64.2,83.7,-42.45,26.9,1140,0.919,0
550064,-1.731,4.527,-3.44,-0.513,-0.994,-2.067,-37.05,99.15,-45.15,27.0,892,0.719,0
550118,-0.273,6.977,-3.924,-0.654,-0.926,-1.859,-37.05,99.15,-45.15,27.1,1378,1.11,0
550172,-4.013,5.689,-2.588,-0.296,-0.812,-1.768,-12.75,105.75,-45.15,27.0,2539,2.046,0
550226,-3.44,6.754,-3.862,-0.232,-0.797,-1.908,-12.75,105.75,-45.15,26.9,2714,2.187,0
550280,-6.651,5.131,-2.358,-0.77,-0.197,-1.098,-12.75,105.75,-45.15,27.0,2925,2.357,0
550334,-5.459,5.866,-3.033,0.104,-0.782,-1.534,-12.75,105.75,-45.15,26.9,3065,2.47,0
550388,-8.645,4.223,-0.345,-0.89,0.645,-0.621,21.6,105.15,-40.2,26.7,2997,2.415,0
550442,-10.465,2.085,-1.927,0.109,-0.3,-0.374,21.6,105.15,-40.2,27.0,3064,2.469,0
550496,-10.764,4.264,-0.936,-0.01,0.564,1.127,23.55,102.15,-38.1,26.9,4095,3.3,0
550550,-8.88,2.217,-1.875,0.946,0.166,0.968,23.55,102.15,-38.1,26.8,2671,2.152,0
550604,-5.842,4.707,-1.858,0.245,1.318,2.673,15.45,103.8,-42.15,27.0,2033,1.638,0
550658,-1.791,4.472,-2.708,0.7,0.781,2.243,-5.4,104.1,-47.25,27.1,565,0.455,0
550712,0.057,7.872,-7.616,1.76,0.755,0.723,-5.4,104.1,-47.25,27.0,147,0.118,0
550766,-3.443,4.712,-3.62,-0.917,1.682,3.291,-31.8,101.1,-45.45,26.8,117,0.094,0
550820,3.045,9.366,-5.859,2.496,0.181,0.861,-31.8,101.1,-45.45,27.0,162,0.131,0
550874,-2.66,2.739,-2.337,0.682,1.277,3.68,-57.3,85.35,-45.3,27.1,125,0.101,0
550928,11.126,14.313,-10.673,3.676,0.636,-0.642,-57.3,85.35,-45.3,27.0,160,0.129,0
550982,-4.721,-0.802,-4.494,-0.221,1.489,3.033,-57.3,85.35,-45.3,27.0,1631,1.314,0
551036,10.321,13.601,-7.52,2.111,1.265,0.341,-57.3,85.35,-45.3,27.0,172,0.139,0
551090,2.646,-1.774,-6.498,0.65,0.631,1.555,-73.2,46.95,-20.25,26.9,154,0.124,0
551144,10.769,5.89,-7.575,0.525,1.558,1.577,-73.2,46.95,-20.25,27.0,148,0.119,0
551198,6.831,0.922,-6.005,0.698,0.641,1.136,-79.35,33.6,-9.75,26.8,153,0.123,0
551252,6.986,4.238,-4.961,0.555,1.246,1.717,-83.1,14.25,2.85,26.6,168,0.135,0
551306,10.862,4.276,-8.842,0.507,1.182,1.017,-83.1,14.25,2.85,26.9,179,0.144,0
551360,8.564,1.867,-5.844,-0.14,0.829,0.97,-79.5,0.45,12.6,26.9,155,0.125,0
551414,8.823,2.444,-6.761,0.732,0.361,0.336,-79.5,0.45,12.6,27.1,135,0.109,0
551468,10.056,2.713,-6.213,-0.811,0.509,0.692,-79.5,0.45,12.6,27.2,137,0.11,0
551522,9.534,1.405,-6.998,0.664,-0.268,-0.405,-79.5,0.45,12.6,27.0,144,0.116,0
551576,12.55,5.497,-8.559,-1.058,-0.773,-0.899,-73.65,-5.4,20.4,26.9,166,0.134,0
551630,11.842,4.199,-7.575,-1.014,-1.226,-2.265,-73.65,-5.4,20.4,27.0,165,0.133,0
551684,9.254,1.82,-6.608,-1.796,-1.275,-2.043,-73.65,-5.4,20.4,27.0,176,0.142,0
551738,8.871,3.136,-4.585,-1.011,-1.424,-2.199,-73.65,-5.4,20.4,26.8,175,0.141,0
551792,9.929,7.63,-6.67,0.039,-1.888,-3.722,-80.4,28.2,-1.8,26.9,158,0.127,0
551846,5.368,0.924,-3.706,-0.971,-1.333,-1.864,-78.0,41.55,-11.1,27.2,469,0.378,0
551900,8.487,10.3,-6.254,-0.219,-1.503,-2.774,-78.0,41.55,-11.1,26.9,1681,1.355,0
551954,2.456,3.062,-5.971,-0.202,-1.783,-3.462,-73.5,70.05,-33.45,26.9,1227,0.989,0
552008,1.42,6.783,-3.802,-1.48,-0.742,-1.69,-73.5,70.05,-33.45,27.1,1013,0.816,0
552062,0.481,7.082,-4.48,-0.276,-1.327,-2.596,-48.0,93.15,-42.3,27.0,1263,1.018,0
552116,-2.626,5.966,-3.105,-0.542,-0.867,-1.973,-48.0,93.15,-42.3,26.9,1250,1.007,0
552170,-1.006,8.432,-4.762,-0.599,-0.83,-2.264,-48.0,93.15,-42.3,27.2,2117,1.706,0
552224,-5.751,3.407,-1.446,-0.818,-0.124,-1.238,-48.0,93.15,-42.3,26.6,2383,1.92,0
552278,-1.298,10.29,-5.751,0.913,-1.377,-3.035,-1.8,107.85,-37.2,26.7,2796,2.253,0
552332,-9.438,2.284,-1.223,-1.838,0.513,-0.646,-1.8,107.85,-37.2,27.2,2995,2.414,0
552386,-4.365,6.838,-2.825,1.112,-0.963,-2.173,12.75,106.05,-31.5,27.2,3144,2.534,0
552440,-11.155,2.835,-2.631,-1.021,0.839,-0.06,12.75,106.05,-31.5,26.8,3229,2.602,0
552494,-8.384,4.353,-1.48,0.344,-0.227,-0.456,26.55,103.35,-29.7,27.1,3353,2.702,0
552548,-10.805,1.314,-0.153,-0.35,1.051,1.235,26.7,102.0,-29.85,27.2,4095,3.3,0
552602,-9.064,3.455,-1.604,1.122,0.096,1.101,26.7,102.0,-29.85,27.2,2847,2.294,0
552656,-5.892,5.373,-3.634,0.431,0.954,2.081,15.75,105.3,-38.1,27.2,2365,1.906,0
552710,-3.321,4.963,-4.664,0.928,0.191,1.355,15.75,105.3,-38.1,26.8,543,0.438,0
552764,-2.899,5.574,-3.412,-0.248,1.397,2.933,-3.6,107.4,-43.05,26.7,263,0.212,0
552818,1.013,8.557,-5.99,1.87,0.334,0.874,-3.6,107.4,-43.05,27.0,157,0.127,0
552872,-0.333,5.282,-2.909,-1.171,1.898,3.72,-3.6,107.4,-43.05,27.0,146,0.118,0
552926,2.454,6.804,-5.509,3.042,-0.291,0.78,-3.6,107.4,-43.05,27.2,151,0.122,0
552980,2.339,6.97,-5.543,-1.134,2.068,3.814,-51.3,90.45,-45.6,26.9,176,0.142,0
553034,2.088,5.875,-6.929,2.438,0.334,0.989,-51.3,90.45,-45.6,26.9,183,0.147,0
553088,4.061,2.849,-5.361,-0.739,1.626,3.89,-73.95,67.05,-34.05,27.0,972,0.783,0
553142,5.329,5.186,-7.877,2.752,0.579,0.132,-75.45,46.2,-20.25,27.1,159,0.128,0
553196,5.188,4.796,-7.005,-1.086,1.716,3.32,-75.45,46.2,-20.25,26.9,176,0.142,0
553250,7.149,7.017,-5.325,0.678,1.046,1.715,-77.85,36.6,-9.45,27.0,163,0.131,0
553304,8.641,3.333,-7.429,0.521,0.946,1.321,-77.85,36.6,-9.45,27.0,179,0.144,0
553358,6.718,2.753,-4.499,0.129,1.085,1.896,-83.1,24.3,-3.15,26.8,175,0.141,0
553412,8.107,1.499,-4.693,0.672,1.069,1.775,-83.1,24.3,-3.15,27.0,177,0.143,0
553466,10.594,2.526,-5.442,0.909,0.884,1.215,-81.15,5.7,5.85,26.9,168,0.135,0
553520,9.495,1.604,-5.729,0.608,0.877,1.344,-81.15,5.7,5.85,27.0,157,0.127,0
553574,10.513,3.232,-7.053,0.505,0.499,0.679,-81.15,5.7,5.85,27.0,176,0.142,0
553628,11.511,4.659,-9.079,0.058,-0.21,-0.389,-81.15,5.7,5.85,26.9,181,0.146,0
553682,10.039,4.614,-7.743,-0.859,-0.199,-0.605,-74.25,-8.7,19.8,26.8,169,0.136,0
553736,10.958,3.455,-7.815,-0.845,-1.064,-2.037,-79.05,0.45,12.6,27.0,153,0.123,0
553790,10.867,3.524,-7.154,-1.058,-1.257,-2.287,-79.05,0.45,12.6,26.8,147,0.118,0
553844,9.009,3.0,-7.235,-0.181,-2.273,-3.542,-81.6,20.1,0.6,27.0,160,0.129,0
553898,9.424,5.27,-5.825,-2.153,-1.207,-1.84,-81.6,20.1,0.6,26.8,170,0.137,0
553952,5.88,3.706,-6.718,1.058,-2.757,-4.455,-76.5,40.65,-10.35,26.8,499,0.402,0
554006,4.853,5.164,-5.296,-2.706,-0.759,-1.213,-76.5,40.65,-10.35,27.0,1939,1.563,0
554060,3.84,5.854,-5.997,0.754,-2.324,-4.379,-72.75,64.65,-31.5,27.0,1324,1.067,0
554114,-0.5,2.672,-4.293,-1.194,-0.811,-1.801,-72.75,64.65,-31.5,26.8,1247,1.005,0
554168,1.01,8.025,-5.478,-0.642,-1.085,-2.357,-49.65,90.6,-46.2,26.6,904,0.728,0
554222,-3.136,3.237,-3.151,-0.675,-0.679,-1.517,-49.65,90.6,-46.2,27.0,1205,0.971,0
554276,-1.47,8.495,-4.762,-0.167,-0.916,-1.896,-49.65,90.6,-46.2,27.2,2403,1.936,0
554330,-3.936,5.432,-3.393,-0.706,-0.272,-1.499,-5.7,106.8,-42.45,27.0,2551,2.056,0
554384,-5.222,6.807,-5.138,-0.339,-1.022,-2.301,-5.7,106.8,-42.45,27.2,2750,2.216,0
554438,-4.946,7.046,-3.735,-2.171,0.302,-1.172,10.2,107.25,-35.55,27.0,3101,2.499,0
554492,-6.407,4.954,-1.128,-0.994,-0.261,-1.321,10.2,107.25,-35.55,27.0,3199,2.578,0
554546,-7.772,3.797,-0.366,0.343,-0.548,-1.095,21.0,107.25,-22.35,26.9,3207,2.584,0
554600,-8.952,3.182,-0.864,-0.009,0.291,0.066,21.0,107.25,-22.35,26.7,3243,2.613,0
554654,-10.18,1.982,-1.645,0.564,-0.065,0.495,25.2,103.95,-22.95,26.8,3181,2.563,0
554708,-7.774,4.096,-0.994,0.866,0.311,1.917,25.2,103.95,-22.95,27.0,2763,2.227,0
554762,-3.934,7.003,-4.207,1.991,0.311,1.166,17.1,107.1,-30.6,27.2,2205,1.777,0
554816,-6.625,5.085,-4.252,0.333,1.317,2.902,17.1,107.1,-30.6,27.0,1933,1.558,0
554870,0.266,8.995,-5.545,1.295,0.673,1.433,-4.35,105.15,-41.25,27.0,128,0.103,0
554924,-1.774,6.361,-5.483,0.446,1.239,2.23,-4.35,105.15,-41.25,26.9,149,0.12,0
554978,1.147,8.605,-6.414,1.118,1.178,1.368,-4.35,105.15,-41.25,26.9,152,0.122,0
555032,-0.587,7.52,-5.887,-0.515,1.654,2.761,-50.25,90.75,-46.05,27.1,175,0.141,0
555086,2.746,6.23,-6.831,1.789,0.65,0.951,-50.25,90.75,-46.05,26.8,115,0.093,0
555140,1.367,3.733,-5.2,0.176,1.169,2.745,-67.95,72.45,-37.35,26.8,180,0.145,0
555194,7.252,10.386,-8.004,0.467,1.155,1.439,-67.95,72.45,-37.35,27.2,1422,1.146,0
555248,1.281,0.01,-2.729,0.873,0.532,2.371,-75.6,51.3,-22.65,26.8,170,0.137,0
555302,11.626,11.914,-8.497,1.371,1.189,0.753,-75.6,51.3,-22.65,27.0,170,0.137,0
555356,2.435,-2.478,-4.884,1.451,0.471,1.244,-72.75,43.8,-16.2,26.9,176,0.142,0
555410,10.386,7.831,-6.474,-0.232,1.836,2.425,-72.75,43.8,-16.2,26.8,169,0.136,0
555464,8.145,0.812,-5.856,2.024,0.469,0.525,-78.6,31.2,-6.9,26.8,174,0.14,0
555518,6.95,-0.045,-5.025,-0.488,1.909,3.137,-80.4,11.85,4.65,27.0,176,0.142,0
555572,10.42,3.895,-5.229,1.381,1.02,1.24,-80.4,11.85,4.65,26.7,184,0.148,0
555626,9.685,1.844,-7.633,1.309,0.493,0.728,-80.4,11.85,4.65,26.6,173,0.139,0
555680,10.889,4.707,-7.846,-0.727,1.022,1.054,-80.4,11.85,4.65,26.9,179,0.144,0
555734,10.168,2.77,-9.012,0.612,-0.546,-1.243,-72.15,-6.45,19.35,26.8,165,0.133,0
555788,11.329,4.695,-9.704,-1.212,-0.604,-1.209,-72.15,-6.45,19.35,27.1,192,0.155,0
555842,10.87,2.629,-7.791,-1.134,-1.385,-2.043,-75.9,1.8,15.3,27.0,164,0.132,0
555896,9.787,3.531,-7.403,-1.563,-1.543,-1.912,-75.9,1.8,15.3,27.1,173,0.139,0
555950,9.687,3.627,-5.562,-1.384,-1.654,-2.32,-80.55,20.25,0.15,27.0,159,0.128,0
556004,8.442,3.63,-6.843,0.209,-2.583,-3.537,-80.55,20.25,0.15,26.8,200,0.161,0
556058,5.59,3.816,-7.446,-1.449,-1.607,-2.09,-75.75,43.5,-15.9,26.7,1559,1.256,0
556112,4.657,5.681,-4.779,-1.626,-1.454,-1.853,-75.75,43.5,-15.9,26.7,2041,1.645,0
556166,2.607,5.926,-5.954,0.257,-2.376,-3.382,-75.75,43.5,-15.9,26.8,1579,1.272,0
556220,0.17,4.583,-4.659,-1.843,-1.026,-1.27,-50.1,87.45,-52.05,27.1,1216,0.98,0
556274,1.98,6.864,-4.846,-0.125,-2.184,-2.887,-50.1,87.45,-52.05,26.8,1320,1.064,0
556328,-1.262,5.947,-4.322,-1.427,-0.57,-1.495,-50.1,87.45,-52.05,27.0,2061,1.661,0
556382,-3.072,4.75,-3.17,-0.537,-1.269,-2.134,-50.1,87.45,-52.05,27.0,2520,2.031,0
556436,-3.424,5.629,-2.021,-0.916,-0.332,-0.942,-1.05,106.65,-47.1,26.8,2796,2.253,0
556490,-3.737,7.008,-4.925,-0.123,-1.076,-2.265,-1.05,106.65,-47.1,26.7,3033,2.444,0
556544,-7.884,2.638,-0.467,-1.177,0.278,-0.102,15.9,106.65,-42.0,26.8,3101,2.499,0
556598,-4.745,5.978,-1.415,0.552,-0.693,-1.304,15.9,106.65,-42.0,26.8,3253,2.621,0
556652,-13.226,1.544,0.797,-0.836,0.679,0.499,25.5,104.55,-38.85,27.0,3260,2.627,0
556706,-8.507,4.116,-1.437,1.088,0.31,0.282,22.35,104.7,-38.7,27.2,3116,2.511,0
556760,-7.927,3.666,-2.119,0.209,0.891,1.506,22.35,104.7,-38.7,26.8,2635,2.123,0
556814,-4.29,6.057,-3.476,0.849,0.942,1.608,22.35,104.7,-38.7,26.8,2162,1.742,0
556868,-5.842,5.346,-3.711,0.958,1.36,1.846,22.35,104.7,-38.7,27.0,1104,0.89,0
556922,-0.318,6.053,-6.201,0.746,1.398,1.888,-11.55,102.0,-52.65,27.2,138,0.111,0
556976,-1.413,7.791,-5.21,-0.661,2.367,3.178,-11.55,102.0,-52.65,26.8,153,0.123,0
557030,0.524,4.743,-7.568,2.267,0.359,0.424,-11.55,102.0,-52.65,26.7,157,0.127,0
557084,-0.857,4.798,-4.566,-0.505,1.812,4.137,-11.55,102.0,-52.65,26.9,167,0.135,0
557138,5.49,7.415,-9.984,4.561,-0.931,-0.224,-66.6,74.55,-37.65,26.8,1219,0.982,0
557192,-0.05,7.008,-7.558,-4.07,4.158,5.687,-66.6,74.55,-37.65,27.1,444,0.358,0
557246,10.716,1.956,-9.701,5.185,-1.772,-2.194,-73.5,48.9,-20.25,26.9,180,0.145,0
557300,0.376,2.227,-5.777,-2.879,3.576,5.499,-72.15,42.15,-13.05,26.8,173,0.139,0
557354,12.404,3.053,-7.915,4.398,0.184,-0.939,-72.15,42.15,-13.05,26.8,197,0.159,0
557408,4.46,0.706,-5.969,-1.677,2.858,4.231,-77.4,34.8,-9.0,26.7,157,0.127,0
557462,9.481,6.615,-6.251,2.184,1.371,0.858,-77.4,34.8,-9.0,26.8,186,0.15,0
557516,8.25,-0.996,-5.988,0.408,1.326,1.787,-77.4,34.8,-9.0,26.9,168,0.135,0
557570,10.29,2.133,-7.147,0.426,1.187,1.241,-77.4,34.8,-9.0,26.8,160,0.129,0
557624,9.361,1.334,-5.897,0.391,1.071,0.934,-76.65,7.2,14.85,27.0,151,0.122,0
557678,10.772,1.506,-8.313,1.032,0.476,-0.211,-76.65,7.2,14.85,27.0,153,0.123,0
557732,11.832,-0.637,-9.081,0.354,0.308,-0.704,-71.7,2.4,22.35,27.0,109,0.088,0
557786,13.956,5.073,-9.969,-0.709,-1.054,-1.271,-71.7,2.4,22.35,27.0,160,0.129,0
557840,10.573,3.323,-8.253,-1.603,-1.451,-2.119,-72.75,8.7,17.25,27.0,140,0.113,0
557894,10.13,0.998,-6.27,-0.905,-2.273,-2.522,-77.55,26.1,4.2,26.8,183,0.147,0
557948,10.214,4.573,-7.865,-1.341,-2.089,-2.577,-77.55,26.1,4.2,26.7,165,0.133,0
558002,7.372,2.466,-5.586,-1.294,-2.002,-2.658,-70.05,47.85,-14.25,26.8,669,0.539,0
558056,6.088,5.128,-6.541,-1.345,-1.766,-2.668,-70.05,47.85,-14.25,26.9,1567,1.263,0
558110,2.538,3.227,-3.994,-1.091,-1.346,-2.006,-68.1,64.05,-26.25,27.0,2368,1.908,0
558164,4.532,7.614,-5.622,-0.382,-1.771,-2.894,-68.1,64.05,-26.25,26.8,1847,1.488,0
558218,0.201,4.642,-4.805,-0.833,-1.373,-2.301,-68.1,64.05,-26.25,26.9,1243,1.002,0
558272,-0.165,8.442,-5.054,-1.007,-1.132,-1.882,-68.1,64.05,-26.25,26.9,1355,1.092,0
558326,-2.389,4.305,-2.966,-0.503,-0.962,-1.895,-26.7,102.75,-42.75,27.0,1341,1.081,0
558380,-2.658,8.181,-3.91,-0.826,-0.835,-1.576,-26.7,102.75,-42.75,26.8,2274,1.833,0
558434,-3.718,4.8,-2.686,-0.495,-0.613,-1.492,-5.1,106.65,-37.95,27.0,2617,2.109,0
558488,-4.116,7.063,-2.916,-0.577,-0.832,-1.378,-5.1,106.65,-37.95,26.8,2900,2.337,0
558542,-6.33,6.182,-2.289,-0.504,-0.4,-1.262,9.75,108.0,-33.75,26.9,3144,2.534,0
558596,-4.695,5.502,-1.973,-0.736,-0.322,-0.853,22.8,106.05,-28.95,26.9,3221,2.596,0
558650,-9.395,3.194,-0.141,-0.167,-0.218,-0.678,22.8,106.05,-28.95,27.0,3180,2.563,0
558704,-10.429,2.698,0.575,-0.416,0.432,0.492,22.8,106.05,-28.95,26.8,3197,2.576,0
558758,-9.395,2.184,-0.757,0.959,0.249,0.784,22.8,106.05,-28.95,27.0,2906,2.342,0
558812,-5.054,5.595,-2.751,1.059,0.706,1.493,20.55,106.8,-28.65,26.9,2688,2.166,0
558866,-3.419,6.407,-2.868,0.178,1.496,2.291,20.55,106.8,-28.65,26.9,2085,1.68,0
558920,-4.073,4.393,-4.542,2.05,0.647,1.151,20.55,106.8,-28.65,26.8,299,0.241,0
558974,-2.911,7.93,-4.638,-0.182,1.592,2.591,20.55,106.8,-28.65,26.8,202,0.163,0
559028,-0.314,7.317,-7.319,1.476,0.497,0.824,-22.65,104.7,-42.3,26.8,137,0.11,0
559082,-3.359,6.661,-4.506,-0.616,1.66,3.288,-22.65,104.7,-42.3,27.0,136,0.11,0
559136,4.436,6.965,-5.873,1.95,0.282,1.085,-46.5,92.7,-39.0,26.8,177,0.143,0
559190,1.602,6.493,-5.013,-0.084,1.901,3.207,-63.9,71.7,-31.95,27.2,151,0.122,0
559244,6.766,5.016,-7.968,2.808,0.209,0.523,-63.9,71.7,-31.95,26.9,1771,1.427,0
559298,4.094,2.363,-6.158,-1.212,2.162,3.988,-65.55,53.7,-17.85,26.8,235,0.189,0
559352,8.423,10.8,-7.503,0.851,1.181,1.09,-65.55,53.7,-17.85,26.8,169,0.136,0
559406,4.805,0.306,-7.968,0.955,0.286,1.64,-65.55,53.7,-17.85,26.7,167,0.135,0
559460,8.25,5.892,-7.97,-2.432,1.751,3.291,-65.55,53.7,-17.85,27.1,157,0.127,0
559514,5.602,0.079,-5.737,1.365,0.152,-0.006,-75.45,34.5,-5.25,27.0,175,0.141,0
559568,6.364,2.569,-4.262,-0.203,1.056,2.232,-75.45,34.5,-5.25,27.0,158,0.127,0
559622,8.693,2.655,-4.949,1.062,0.735,1.1,-75.45,34.5,-5.25,27.0,167,0.135,0
559676,7.666,-1.202,-3.706,0.821,0.885,1.624,-75.45,34.5,-5.25,27.2,167,0.135,0
559730,10.582,2.466,-6.179,0.942,0.908,1.305,-78.0,6.75,11.85,27.0,156,0.126,0
559784,10.436,2.504,-7.23,-0.142,0.862,0.984,-71.85,-4.5,20.1,26.9,166,0.134,0
559838,8.933,3.144,-7.118,-0.027,-0.03,0.106,-71.85,-4.5,20.1,26.7,143,0.115,0
559892,11.317,3.517,-9.16,0.196,-0.653,-1.358,-72.15,-4.5,22.2,26.7,183,0.147,0
559946,9.984,1.846,-6.917,-1.542,-0.477,-0.648,-72.15,-4.5,22.2,27.1,175,0.141,0
560000,10.391,3.438,-7.377,-0.28,-1.43,-2.062,-75.45,5.1,13.65,27.0,179,0.144,0
560054,10.886,3.438,-7.798,-1.283,-1.567,-2.146,-75.45,5.1,13.65,26.8,179,0.144,0
560108,9.469,2.725,-7.063,-1.336,-1.804,-2.457,-75.45,5.1,13.65,26.9,157,0.127,0
560162,9.292,4.293,-6.555,-1.121,-1.959,-2.757,-75.45,5.1,13.65,27.0,205,0.165,0
560216,6.488,3.244,-6.134,-0.792,-1.96,-3.039,-70.35,46.65,-12.3,27.0,153,0.123,0
560270,4.97,5.531,-5.914,-1.712,-1.348,-2.207,-70.35,46.65,-12.3,26.8,1919,1.546,0
560324,2.126,4.599,-5.775,-0.247,-1.911,-3.3,-70.2,62.7,-28.65,26.7,1139,0.918,0
560378,2.188,5.595,-4.539,-1.922,-0.762,-1.348,-49.65,91.05,-42.9,26.7,1155,0.931,0
560432,-0.84,5.229,-4.185,0.57,-1.924,-3.15,-49.65,91.05,-42.9,26.9,1135,0.915,0
560486,-0.685,6.594,-4.118,-1.972,-0.592,-1.281,-22.05,101.85,-46.95,27.0,2623,2.114,0
560540,-4.204,6.189,-2.705,0.399,-1.479,-2.675,-22.05,101.85,-46.95,26.9,2709,2.183,0
560594,-3.958,6.452,-3.522,-1.186,-0.286,-1.331,-0.15,106.5,-43.2,26.8,2896,2.334,0
560648,-6.036,5.083,-3.421,-0.056,-0.587,-1.935,-0.15,106.5,-43.2,26.8,3031,2.443,0
560702,-6.768,6.026,-1.654,-1.174,0.265,-0.982,16.5,105.3,-36.3,26.8,3255,2.623,0
560756,-7.039,4.448,-2.241,0.263,-0.771,-1.899,16.5,105.3,-36.3,27.0,3254,2.622,0
560810,-9.653,5.193,0.067,-1.606,0.59,0.265,16.5,105.3,-36.3,26.7,3255,2.623,0
560864,-11.059,-0.297,-1.003,1.34,-0.525,-0.416,16.5,105.3,-36.3,26.8,3190,2.571,0
560918,-9.074,5.835,-1.295,-0.268,0.811,1.433,30.9,104.4,-27.75,26.9,2984,2.405,0
560972,-7.714,2.871,-2.804,1.183,0.181,0.857,30.9,104.4,-27.75,27.0,2576,2.076,0
561026,-4.638,7.175,-2.476,-0.45,1.424,2.409,30.9,104.4,-27.75,27.0,2483,2.001,0
561080,-3.603,3.747,-3.5,1.826,0.255,0.985,5.55,106.65,-36.45,26.8,1315,1.06,0
561134,-3.491,7.896,-4.367,-0.01,1.666,2.486,5.55,106.65,-36.45,26.9,202,0.163,0
561188,-0.745,5.672,-5.344,1.133,0.717,1.127,-15.0,103.35,-41.4,27.0,169,0.136,0
561242,-1.669,7.702,-5.313,0.039,1.451,2.2,-15.0,103.35,-41.4,27.0,152,0.122,0
561296,1.53,6.424,-4.978,0.628,0.768,1.333,-33.15,97.8,-42.75,26.8,147,0.118,0
561350,0.848,10.008,-6.838,0.249,1.654,1.167,-33.15,97.8,-42.75,26.8,211,0.17,0
561404,-1.279,1.566,-4.128,-0.534,1.403,3.441,-53.1,90.15,-37.05,27.0,203,0.164,0
561458,7.116,12.057,-6.819,0.064,1.496,2.272,-53.1,90.15,-37.05,27.2,147,0.118,0
561512,-1.42,0.378,-4.01,0.866,0.081,1.811,-53.1,90.15,-37.05,26.8,1176,0.948,0
561566,9.199,11.344,-7.875,0.236,1.49,2.026,-68.1,54.9,-15.6,27.0,171,0.138,0
561620,4.451,0.189,-5.042,1.488,1.301,1.716,-68.1,54.9,-15.6,26.8,270,0.218,0
561674,11.681,5.198,-5.375,-0.338,1.75,2.81,-68.1,54.9,-15.6,27.0,264,0.213,0
561728,7.379,1.841,-6.0,1.883,0.946,1.205,-68.1,54.9,-15.6,27.0,271,0.218,0
561782,11.028,1.901,-6.462,-0.12,1.391,2.127,-76.5,28.8,4.2,26.6,208,0.168,0
561836,8.928,2.169,-5.997,0.802,1.019,1.746,-76.5,28.8,4.2,26.9,167,0.135,0
561890,11.164,2.887,-6.483,0.394,0.875,1.175,-74.25,11.4,14.4,27.0,152,0.122,0
561944,10.848,2.207,-6.869,0.077,0.353,0.109,-74.25,11.4,14.4,26.8,112,0.09,0
561998,11.514,4.805,-8.243,-0.083,0.013,-0.479,-72.0,2.4,20.25,26.7,153,0.123,0
562052,10.755,3.311,-8.885,-0.004,-0.826,-1.24,-72.0,2.4,20.25,27.0,171,0.138,0
562106,10.714,5.77,-9.043,-1.341,-0.945,-1.274,-72.6,7.65,18.6,27.0,169,0.136,0
562160,10.805,2.069,-6.893,-0.766,-1.421,-2.378,-75.75,22.5,7.8,26.9,172,0.139,0
562214,9.615,2.832,-5.926,-0.873,-1.747,-2.415,-75.75,22.5,7.8,26.6,164,0.132,0
562268,8.382,4.503,-5.356,-1.032,-1.659,-2.397,-71.1,43.2,-5.85,26.6,171,0.138,0
562322,6.572,3.943,-5.942,-0.019,-2.106,-3.0,-71.1,43.2,-5.85,26.8,170,0.137,0
562376,6.019,5.926,-6.088,-1.159,-1.497,-2.152,-71.1,43.2,-5.85,26.8,1806,1.455,0
562430,3.141,4.391,-4.839,-0.424,-1.591,-2.333,-71.1,43.2,-5.85,26.7,716,0.577,0
562484,2.045,6.448,-6.007,-0.614,-1.462,-2.241,-59.85,78.45,-34.65,27.0,588,0.474,0
562538,0.172,5.842,-5.179,-0.541,-1.191,-1.893,-59.85,78.45,-34.65,26.8,1373,1.106,0
562592,-0.73,6.203,-4.525,-0.857,-1.103,-1.718,-40.5,95.85,-45.3,26.8,1875,1.511,0
562646,-2.421,6.431,-3.845,-0.313,-0.928,-1.723,-40.5,95.85,-45.3,26.9,2204,1.776,0
562700,-2.289,7.989,-5.425,-0.17,-0.954,-2.054,-17.1,102.0,-45.6,26.6,2251,1.814,0
562754,-4.175,5.399,-2.998,-1.111,-0.091,-0.712,-0.9,106.5,-40.35,26.8,2461,1.983,0
562808,-1.937,8.171,-4.642,-0.164,-0.588,-1.742,-0.9,106.5,-40.35,27.0,2634,2.123,0
562862,-6.44,3.606,-1.946,-1.512,0.334,-0.924,15.6,104.4,-35.1,26.7,2907,2.343,0
562916,-8.322,4.108,-4.149,0.694,-1.189,-1.925,15.6,104.4,-35.1,26.9,3241,2.612,0
562970,-5.926,6.462,-2.746,-1.032,0.131,-0.254,26.4,102.75,-35.4,26.6,3112,2.508,0
563024,-10.132,2.38,-0.448,-0.693,0.244,0.089,26.4,102.75,-35.4,27.0,3161,2.547,0
563078,-9.658,2.291,-2.028,0.893,-0.41,0.019,26.4,102.75,-35.4,26.8,3031,2.443,0
563132,-8.04,5.765,-1.767,-0.282,0.994,1.508,26.4,102.75,-35.4,26.7,2430,1.958,0
563186,-5.521,3.261,-2.629,0.715,0.456,1.348,19.5,104.1,-33.45,26.7,2162,1.742,0
563240,-4.434,5.878,-4.094,0.331,0.9,2.045,19.5,104.1,-33.45,26.9,1248,1.006,0
563294,-0.275,7.853,-4.123,-0.129,1.141,2.036,1.95,107.25,-37.05,27.0,832,0.67,0
563348,1.662,7.635,-6.838,1.533,-0.101,0.582,-19.5,105.75,-38.85,26.8,117,0.094,0
563402,1.109,11.636,-4.779,-1.936,2.358,3.774,-19.5,105.75,-38.85,26.9,154,0.124,0
563456,-4.544,-0.115,-3.316,3.858,-1.106,-0.559,-45.0,95.85,-33.6,26.9,228,0.184,0
563510,2.567,14.523,-5.914,-1.896,2.861,4.253,-45.0,95.85,-33.6,27.0,235,0.189,0
563564,1.726,0.115,-8.428,5.121,-0.597,-1.633,-61.35,74.55,-29.55,27.0,275,0.222,0
563618,4.247,8.976,-6.404,-3.603,3.591,5.623,-61.35,74.55,-29.55,27.0,273,0.22,0
563672,7.951,2.847,-9.038,4.838,-0.278,-1.948,-66.45,55.05,-13.2,26.6,1035,0.834,0
563726,3.792,3.12,-6.618,-2.94,2.871,5.103,-66.45,55.05,-13.2,26.9,248,0.2,0
563780,12.924,8.121,-8.437,3.199,0.057,-1.13,-66.45,55.05,-13.2,27.0,146,0.118,0
563834,3.907,0.347,-5.112,-1.116,1.687,2.795,-66.45,55.05,-13.2,27.0,137,0.11,0
563888,7.673,3.862,-5.112,1.791,0.786,1.12,-73.35,37.05,1.05,26.8,110,0.089,0
563942,9.919,1.535,-5.114,0.153,1.293,1.848,-76.2,24.15,9.6,26.8,131,0.106,0
563996,9.639,1.87,-5.373,0.825,0.875,1.03,-76.2,24.15,9.6,27.0,143,0.115,0
564050,9.886,1.441,-5.03,0.211,0.745,0.942,-72.45,10.5,18.45,26.8,141,0.114,0
564104,9.562,2.591,-6.792,0.351,0.396,0.231,-72.45,10.5,18.45,26.8,131,0.106,0
564158,10.448,1.484,-5.751,-0.115,0.36,0.387,-70.05,4.5,25.2,26.8,121,0.098,0
564212,9.95,2.109,-8.471,0.979,-1.0,-1.834,-70.05,4.5,25.2,26.8,96,0.077,0
564266,10.008,3.91,-7.819,-1.329,-0.808,-0.708,-70.05,4.5,25.2,26.8,148,0.119,0
564320,11.801,5.104,-7.836,-1.021,-1.709,-2.293,-70.05,4.5,25.2,26.7,135,0.109,0
564374,8.78,1.803,-6.658,-1.261,-1.655,-2.036,-75.9,24.3,10.95,26.8,141,0.114,0
564428,10.853,4.791,-6.974,-1.089,-2.071,-2.675,-75.9,24.3,10.95,26.8,127,0.102,0
564482,5.267,2.43,-4.824,-1.046,-1.618,-2.069,-72.45,45.0,-4.8,26.9,250,0.201,0
564536,8.54,7.86,-6.081,-0.273,-1.929,-2.925,-72.45,45.0,-4.8,27.0,163,0.131,0
564590,2.306,2.447,-4.386,-0.541,-1.582,-2.321,-65.85,59.1,-19.65,26.6,2091,1.685,0
564644,3.752,6.859,-5.981,-0.314,-1.781,-2.524,-58.2,81.3,-37.8,26.7,510,0.411,0
564698,0.486,5.169,-4.968,-1.332,-1.063,-1.916,-58.2,81.3,-37.8,27.0,951,0.766,0
564752,0.29,6.934,-4.456,-0.526,-1.252,-2.258,-36.6,98.4,-43.95,26.8,1752,1.412,0
564806,-1.434,5.44,-4.12,-0.645,-0.809,-1.839,-36.6,98.4,-43.95,26.8,2316,1.866,0
564860,-2.277,6.27,-3.843,-0.71,-0.937,-1.782,-14.4,105.9,-40.5,27.0,2247,1.811,0
564914,-2.787,7.752,-4.922,-0.787,-0.82,-1.969,-14.4,105.9,-40.5,27.0,2533,2.041,0
564968,-6.031,4.999,-3.543,-1.081,-0.447,-1.54,-14.4,105.9,-40.5,26.8,2727,2.198,0
565022,-5.954,6.254,-2.576,-1.038,-0.443,-1.366,-14.4,105.9,-40.5,26.8,3262,2.629,0
565076,-6.785,5.322,-1.705,-0.815,-0.425,-1.459,21.15,106.2,-25.2,26.8,3237,2.609,0
565130,-9.409,1.913,0.299,-0.231,-0.179,-1.082,21.15,106.2,-25.2,26.8,3231,2.604,0
565184,-10.092,4.602,-0.347,-0.367,0.283,-0.168,33.15,102.0,-17.85,26.9,3375,2.72,0
565238,-11.167,0.711,-1.875,0.064,0.268,0.63,35.4,100.05,-16.8,26.8,3304,2.663,0
565292,-7.082,6.381,-1.753,0.115,0.556,1.021,35.4,100.05,-16.8,26.8,3169,2.554,0
565346,-8.435,2.545,-2.476,0.721,0.2,1.032,28.95,104.4,-22.65,26.8,2795,2.252,0
565400,-5.748,6.651,-1.709,-0.457,0.723,2.538,28.95,104.4,-22.65,26.8,2595,2.091,0
565454,-4.329,6.132,-3.029,0.903,0.509,1.509,14.7,106.5,-26.1,26.8,2061,1.661,0
565508,-4.963,4.487,-2.986,0.643,0.756,2.082,14.7,106.5,-26.1,27.0,1191,0.96,0
565562,-1.221,9.026,-3.196,-0.486,1.533,3.097,-4.05,106.2,-31.35,26.6,383,0.309,0
565616,0.855,6.62,-7.19,2.166,-0.326,0.255,-4.05,106.2,-31.35,26.8,145,0.117,0
565670,-0.462,6.766,-4.171,-1.243,1.166,3.434,-4.05,106.2,-31.35,27.0,169,0.136,0
565724,1.475,11.363,-5.904,2.158,0.145,0.486,-4.05,106.2,-31.35,26.8,138,0.111,0
565778,-2.267,3.991,-2.207,-0.761,1.322,3.221,-45.45,94.65,-34.35,26.8,165,0.133,0
565832,5.519,12.598,-5.65,1.063,0.656,0.816,-61.35,78.0,-25.95,26.8,152,0.122,0
565886,2.176,2.617,-3.903,-0.46,0.975,2.611,-61.35,78.0,-25.95,26.8,143,0.115,0
565940,5.409,8.918,-5.255,0.233,1.24,1.985,-70.35,58.65,-12.3,27.0,128,0.103,0
565994,4.709,2.559,-3.534,0.557,1.11,2.673,-70.35,58.65,-12.3,26.9,1233,0.994,0
566048,8.006,6.091,-5.701,1.448,0.669,1.316,-72.0,45.0,-1.5,26.6,148,0.119,0
566102,7.475,3.881,-5.332,0.608,1.114,2.029,-72.0,45.0,-1.5,26.7,126,0.102,0
566156,9.883,5.011,-5.313,0.37,0.919,1.435,-72.0,45.0,-1.5,26.8,179,0.144,0
566210,9.404,4.448,-5.555,0.232,0.97,1.632,-72.0,45.0,-1.5,26.9,150,0.121,0
566264,8.219,2.296,-3.804,0.165,1.212,1.925,-77.1,16.2,14.85,27.1,96,0.077,0
566318,10.568,1.812,-4.413,1.151,0.755,1.158,-77.1,16.2,14.85,27.0,157,0.127,0
566372,12.194,2.064,-4.769,0.451,0.61,0.933,-72.15,2.25,21.9,26.9,135,0.109,0
566426,11.296,3.512,-6.486,0.467,-0.007,0.013,-67.8,-4.95,28.5,26.9,123,0.099,0
566480,12.27,4.638,-6.852,-0.359,-0.305,-0.681,-67.8,-4.95,28.5,26.9,155,0.125,0
566534,10.494,4.769,-6.747,-0.542,-0.847,-1.448,-68.85,1.5,25.5,26.6,152,0.122,0
566588,12.673,4.271,-6.862,-0.838,-1.122,-2.152,-68.85,1.5,25.5,26.5,173,0.139,0
566642,10.69,3.34,-5.578,-0.717,-1.6,-2.564,-74.85,19.65,13.05,26.9,123,0.099,0
566696,10.029,4.585,-4.786,-0.61,-1.804,-2.763,-74.85,19.65,13.05,26.8,125,0.101,0
566750,9.005,5.507,-6.299,-0.488,-2.06,-3.454,-72.45,44.55,-1.2,26.8,180,0.145,0
566804,6.017,4.738,-4.99,-1.19,-1.491,-2.686,-72.45,44.55,-1.2,26.8,1622,1.307,0
566858,3.352,5.183,-4.214,0.027,-1.863,-3.187,-72.45,44.55,-1.2,26.8,1235,0.995,0
566912,2.025,7.147,-5.409,-1.766,-0.845,-1.851,-72.45,44.55,-1.2,26.8,1636,1.318,0
566966,0.678,6.476,-4.085,0.123,-1.582,-3.136,-54.0,89.25,-30.3,26.9,1296,1.044,0
567020,-2.126,4.973,-3.16,-0.904,-0.827,-1.746,-26.55,103.8,-34.8,26.8,1192,0.961,0
567074,-1.25,7.563,-3.397,-0.735,-0.491,-1.88,-26.55,103.8,-34.8,26.8,1995,1.608,0
567128,-3.45,4.793,-2.904,-0.15,-0.961,-2.065,-4.05,108.6,-33.6,27.0,2565,2.067,0
567182,-5.104,5.413,-2.246,-0.662,-0.336,-0.963,-4.05,108.6,-33.6,26.8,2781,2.241,0
567236,-6.46,4.19,-2.646,0.735,-0.792,-1.548,13.2,106.05,-32.25,27.0,2957,2.383,0
567290,-4.475,8.195,-3.915,-1.294,-0.075,-0.808,13.2,106.05,-32.25,27.0,3178,2.561,0
567344,-8.906,3.493,-0.931,-0.193,-0.574,-1.055,13.2,106.05,-32.25,27.0,3228,2.601,0
567398,-6.433,6.663,-2.674,0.074,-0.167,-0.722,13.2,106.05,-32.25,27.0,3281,2.644,0
567452,-10.24,2.105,-1.314,-0.116,0.002,-0.308,32.4,102.45,-27.75,27.0,3263,2.63,0
567506,-12.043,1.8,-1.053,0.118,0.387,0.937,32.4,102.45,-27.75,26.5,3077,2.48,0
567560,-7.676,3.275,-2.437,0.463,0.423,1.323,32.4,102.45,-27.75,26.8,2571,2.072,0
567614,-6.823,3.596,-1.501,-0.185,0.979,2.541,18.15,106.2,-30.6,27.0,1912,1.541,0
567668,-2.253,6.12,-3.498,1.518,0.386,1.282,18.15,106.2,-30.6,26.9,1055,0.85,0
567722,-4.372,4.894,-4.494,-0.078,1.158,3.291,-5.85,109.05,-36.9,26.8,172,0.139,0
567776,1.654,10.949,-4.788,0.412,1.445,2.166,-5.85,109.05,-36.9,26.8,167,0.135,0
567830,0.297,3.567,-4.264,0.163,0.936,2.519,-33.15,102.0,-36.9,27.0,125,0.101,0
567884,2.057,10.858,-5.057,0.157,1.531,2.915,-33.15,102.0,-36.9,27.0,139,0.112,0
567938,3.438,5.322,-7.104,2.035,0.621,0.626,-57.9,84.45,-31.95,26.4,152,0.122,0
567992,1.235,4.664,-4.551,-0.908,1.65,3.641,-57.9,84.45,-31.95,26.6,155,0.125,0
568046,7.736,9.352,-6.036,0.774,1.139,2.018,-57.9,84.45,-31.95,27.0,1275,1.027,0
568100,4.192,4.24,-5.48,0.661,0.968,2.091,-57.9,84.45,-31.95,26.8,187,0.151,0
568154,7.02,7.123,-6.029,0.22,1.227,2.313,-68.25,47.25,-6.0,26.9,179,0.144,0
568208,8.035,5.971,-6.553,0.9,0.761,0.868,-75.0,41.55,-1.95,26.9,176,0.142,0
568262,7.298,5.918,-6.859,-0.864,1.35,1.547,-75.0,41.55,-1.95,26.8,175,0.141,0
568316,9.436,1.848,-2.701,-1.035,0.466,1.263,-78.0,23.25,10.05,26.8,175,0.141,0
568370,9.172,1.532,-3.996,1.446,-0.107,0.783,-78.0,23.25,10.05,27.0,147,0.118,0
568424,10.048,1.664,-4.085,-0.069,0.909,2.105,-76.95,6.3,16.5,26.6,187,0.151,0
568478,10.74,3.177,-4.566,0.663,0.522,0.91,-76.95,6.3,16.5,26.7,134,0.108,0
568532,11.2,3.651,-6.507,-0.085,0.646,0.436,-76.95,6.3,16.5,26.9,172,0.139,0
568586,10.585,1.693,-3.795,-0.954,0.418,0.653,-76.95,6.3,16.5,27.0,143,0.115,0
568640,11.926,4.839,-6.191,1.171,-0.746,-1.373,-69.3,-13.8,27.0,26.8,157,0.127,0
568694,11.677,4.714,-5.737,-0.954,-0.414,-1.142,-69.3,-13.8,27.0,26.8,152,0.122,0
568748,10.489,5.547,-5.65,-0.663,-0.701,-1.862,-69.3,-13.8,27.0,26.9,168,0.135,0
568802,10.719,3.895,-6.06,-0.344,-1.462,-3.088,-80.4,15.75,13.05,26.8,192,0.155,0
568856,10.18,4.523,-4.372,-0.887,-1.328,-2.573,-80.4,15.75,13.05,26.9,166,0.134,0
568910,8.566,5.243,-6.246,0.287,-1.437,-2.753,-73.65,41.7,1.05,26.7,170,0.137,0
568964,6.414,5.03,-5.193,-0.813,-1.33,-2.453,-73.65,41.7,1.05,26.6,171,0.138,0
569018,4.951,5.499,-3.797,-0.591,-1.501,-2.38,-75.45,55.05,-10.65,26.8,1872,1.509,0
569072,3.984,8.207,-6.014,0.098,-1.55,-3.163,-75.45,55.05,-10.65,27.0,1251,1.008,0
569126,3.402,6.668,-4.386,-1.706,-0.741,-1.579,-63.3,86.1,-34.65,26.8,1235,0.995,0
569180,1.314,6.859,-3.881,0.298,-1.432,-2.843,-63.3,86.1,-34.65,26.8,1184,0.954,0
569234,-3.366,5.14,-2.933,-1.091,-0.701,-1.483,-63.3,86.1,-34.65,26.9,2453,1.977,0
569288,-2.54,8.219,-3.737,0.236,-1.074,-2.453,-63.3,86.1,-34.65,26.7,2555,2.059,0
569342,-3.812,4.47,-2.289,-1.296,-0.365,-1.171,-7.95,106.8,-41.85,26.9,2665,2.148,0
569396,-3.689,8.085,-3.069,0.153,-1.051,-2.179,10.95,107.7,-37.8,26.8,2759,2.223,0
569450,-6.038,5.047,-2.713,-0.652,-0.544,-1.687,10.95,107.7,-37.8,26.7,3056,2.463,0
569504,-6.481,4.465,-1.365,-0.872,-0.32,-0.911,25.65,103.2,-31.35,26.9,3248,2.617,0
569558,-10.436,2.77,-0.86,0.219,-0.48,-0.917,25.65,103.2,-31.35,26.6,3272,2.637,0
569612,-8.351,3.836,-0.579,-0.133,0.153,-0.035,33.45,102.0,-28.5,26.7,3239,2.61,0
569666,-12.285,0.761,-0.469,0.195,0.301,0.886,33.45,102.0,-28.5,26.6,3176,2.559,0
569720,-7.973,5.047,-1.358,1.041,0.633,1.379,27.15,103.95,-31.05,27.0,2823,2.275,0
569774,-6.507,3.096,-2.502,0.592,0.984,1.988,27.15,103.95,-31.05,26.8,2059,1.659,0
569828,-2.751,6.048,-2.545,0.509,1.269,2.397,11.85,109.05,-36.45,26.8,997,0.803,0
569882,-2.15,8.724,-4.408,0.21,1.054,1.861,11.85,109.05,-36.45,26.8,135,0.109,0
569936,-1.982,5.059,-5.825,2.22,0.318,0.353,11.85,109.05,-36.45,26.8,155,0.125,0
569990,-2.753,7.987,-4.492,-1.389,2.352,4.064,-36.6,99.9,-40.35,26.7,172,0.139,0
570044,3.594,8.729,-6.845,2.037,0.335,0.798,-36.6,99.9,-40.35,26.9,151,0.122,0
570098,-1.425,4.147,-4.808,-0.797,1.444,3.932,-62.4,85.65,-33.45,26.8,167,0.135,0
570152,5.564,11.736,-5.674,1.027,1.336,1.827,-62.4,85.65,-33.45,27.0,187,0.151,0
570206,5.361,3.237,-6.34,1.245,0.393,0.956,-74.25,60.45,-19.8,26.7,600,0.484,0
570260,3.122,4.12,-5.614,-0.284,1.821,3.207,-74.25,60.45,-19.8,26.8,859,0.692,0
570314,9.51,6.67,-5.301,0.68,1.575,2.098,-67.95,46.2,-8.1,26.6,158,0.127,0
570368,8.021,4.029,-5.962,0.808,1.093,1.547,-67.95,46.2,-8.1,26.8,159,0.128,0
570422,8.334,3.081,-5.751,0.86,1.152,1.377,-67.95,46.2,-8.1,26.8,128,0.103,0
570476,9.021,4.482,-5.44,-0.512,1.569,2.469,-67.95,46.2,-8.1,26.8,171,0.138,0
570530,10.015,1.59,-4.561,1.424,1.022,1.329,-78.15,22.8,6.15,27.0,155,0.125,0
570584,9.153,1.599,-5.435,0.777,1.168,1.735,-78.15,22.8,6.15,26.7,149,0.12,0
570638,10.92,3.555,-5.818,0.453,0.951,1.328,-77.25,8.25,16.95,26.7,197,0.159,0
570692,10.386,2.622,-6.649,0.913,0.333,0.384,-72.45,-0.45,23.85,27.0,127,0.102,0
570746,10.81,3.766,-6.491,-0.449,0.388,0.319,-72.45,-0.45,23.85,26.8,153,0.123,0
570800,11.566,5.555,-7.597,-0.019,-0.755,-1.278,-69.3,-0.3,25.95,26.7,148,0.119,0
570854,10.659,3.558,-8.009,-0.673,-1.095,-1.808,-69.3,-0.3,25.95,26.5,182,0.147,0
570908,12.151,3.67,-6.364,-1.536,-1.459,-1.889,-76.95,15.9,15.45,27.0,173,0.139,0
570962,8.176,2.55,-5.873,-0.604,-1.738,-2.58,-76.95,15.9,15.45,26.8,149,0.12,0
571016,7.022,4.571,-5.586,-0.805,-1.603,-2.05,-75.9,35.85,0.0,26.9,140,0.113,0
571070,7.357,4.53,-6.342,-0.599,-1.747,-2.379,-75.9,35.85,0.0,26.7,319,0.257,0
571124,5.966,4.513,-5.365,-0.748,-1.541,-2.413,-75.9,35.85,0.0,26.8,754,0.608,0
571178,3.299,4.556,-4.621,-0.686,-1.512,-1.817,-75.9,35.85,0.0,27.0,1989,1.603,0
571232,3.61,8.763,-7.051,-0.272,-1.676,-3.128,-67.2,69.75,-26.85,27.2,1697,1.368,0
571286,-0.79,2.449,-3.498,-1.252,-0.706,-1.245,-48.6,92.1,-38.85,26.6,1923,1.55,0
571340,2.5,10.527,-5.097,0.309,-1.538,-2.922,-48.6,92.1,-38.85,26.6,2235,1.801,0
571394,-4.137,3.012,-4.676,-0.768,-0.889,-1.792,-25.05,104.85,-40.65,26.8,2699,2.175,0
571448,-0.63,9.728,-4.02,-1.261,-0.757,-2.023,-25.05,104.85,-40.65,26.8,2737,2.206,0
571502,-6.788,3.309,-2.181,-0.6,-0.467,-1.668,-2.1,109.35,-32.4,26.8,2794,2.252,0
571556,-3.737,7.664,-2.741,-0.461,-0.439,-1.358,-2.1,109.35,-32.4,27.0,2849,2.296,0
571610,-6.316,6.158,-2.713,-0.485,-0.467,-1.516,-2.1,109.35,-32.4,26.9,3066,2.471,0
571664,-7.58,3.488,-0.8,-0.379,0.006,-1.179,-2.1,109.35,-32.4,27.0,3243,2.613,0
571718,-11.538,2.808,-0.869,-0.196,0.007,-0.219,26.55,106.5,-23.55,27.0,3299,2.659,0
571772,-10.846,1.223,-0.005,0.48,0.137,1.022,26.55,106.5,-23.55,26.7,3076,2.479,0
571826,-6.869,4.245,-1.712,1.553,0.393,1.18,26.55,106.5,-23.55,26.4,2457,1.98,0
571880,-6.235,3.321,-2.112,0.364,0.909,2.624,10.35,107.85,-30.6,26.8,1591,1.282,0
571934,-1.018,9.155,-4.085,0.806,1.074,1.97,10.35,107.85,-30.6,26.8,967,0.779,0
571988,-2.313,5.492,-6.45,1.043,0.31,0.872,-10.5,106.5,-37.8,26.8,175,0.141,0
572042,-2.799,7.7,-5.001,-0.737,1.489,3.604,-10.5,106.5,-37.8,27.0,139,0.112,0
572096,4.322,12.661,-7.195,1.748,0.324,-0.004,-32.7,101.25,-39.45,27.0,132,0.106,0
572150,-4.147,1.006,-4.142,0.042,0.249,2.036,-32.7,101.25,-39.45,26.8,127,0.102,0
572204,4.542,15.117,-5.375,1.025,0.812,0.591,-51.3,92.4,-35.1,26.8,150,0.121,0
572258,-0.943,-0.057,-5.291,1.111,-0.231,1.282,-51.3,92.4,-35.1,26.5,138,0.111,0
572312,4.774,12.933,-6.0,-1.2,1.907,2.661,-51.3,92.4,-35.1,26.8,1489,1.2,0
572366,-1.109,0.115,-5.782,1.843,-0.349,0.031,-51.3,92.4,-35.1,26.8,885,0.713,0
572420,5.071,12.51,-5.578,-2.152,2.01,3.78,-72.45,60.45,-18.0,26.8,226,0.182,0
572474,5.756,5.337,-6.333,2.061,0.124,-0.097,-72.9,50.25,-9.75,26.8,128,0.103,0
572528,5.131,5.997,-6.879,-0.581,1.268,1.896,-72.9,50.25,-9.75,26.8,128,0.103,0
572582,7.195,4.843,-5.466,0.648,0.491,0.638,-75.9,40.95,-3.6,26.7,183,0.147,0
572636,7.25,4.987,-5.993,0.166,0.714,1.301,-75.9,40.95,-3.6,27.0,147,0.118,0
572690,6.414,3.594,-4.872,0.214,0.707,1.204,-79.05,34.95,1.95,26.9,160,0.129,0
572744,9.213,5.547,-5.511,-0.194,0.704,0.827,-79.05,34.95,1.95,26.8,146,0.118,0
572798,6.934,3.266,-4.525,0.496,0.338,0.698,-79.35,26.25,7.2,26.8,186,0.15,0
572852,7.896,3.709,-5.413,0.498,0.427,0.736,-79.35,26.25,7.2,26.8,187,0.151,0
572906,8.487,3.05,-3.96,-0.172,0.519,0.982,-78.6,19.2,10.2,26.8,187,0.151,0
572960,7.74,3.304,-4.776,1.127,0.205,0.313,-78.6,19.2,10.2,26.7,176,0.142,0
573014,8.126,2.028,-5.538,0.349,0.325,0.565,-78.6,19.2,10.2,27.0,175,0.141,0
573068,9.038,1.724,-4.803,0.021,0.467,0.762,-76.35,9.15,16.05,27.0,169,0.136,0
573122,9.237,2.164,-4.482,0.097,0.289,0.322,-76.35,9.15,16.05,27.0,208,0.168,0
